,view_history,rt,trial_type,trial_index,time_elapsed,internal_node_id,subject,survey_code,form_assignment,url,stimulus,button_pressed,type,condition,topic,speaker,form,responses,question_order,response,already_heard_by_speaker,Gender,Native_Speaker,Music_Ability,Age,Mobile
0,"[{""page_index"":0,""viewing_time"":12759.550000000672}]",12759.829999999056,instructions,0,12762,0.0-0.0,yas2e2mcsw,yas2e2mcsw,non_conventional,,,,,,,,,,,,No,Male,Yes,4,19,No
1,,3456.715000000259,external-html,1,16486,0.0-1.0,yas2e2mcsw,yas2e2mcsw,non_conventional,consent.html,,,,,,,,,,,No,Male,Yes,4,19,No
2,"[{""page_index"":0,""viewing_time"":1127.489999998943}]",1127.7049999989686,instructions,2,17878,0.0-2.0,yas2e2mcsw,yas2e2mcsw,non_conventional,,,,,,,,,,,,No,Male,Yes,4,19,No
3,,3621.159999998781,audio-button-response,3,21766,0.0-3.0,yas2e2mcsw,yas2e2mcsw,non_conventional,,calibration/ears_audio_check.wav,2.0,test,,,,,,,,No,Male,Yes,4,19,No
4,"[{""page_index"":0,""viewing_time"":765.3649999992922},{""page_index"":1,""viewing_time"":999.9900000002526},{""page_index"":2,""viewing_time"":1180.0949999997101},{""page_index"":3,""viewing_time"":547.775000000911},{""page_index"":4,""viewing_time"":584.1449999988981}]",4077.569999999469,instructions,4,26095,0.0-4.0,yas2e2mcsw,yas2e2mcsw,non_conventional,,,,,,,,,,,,No,Male,Yes,4,19,No
5,,,audio-button-response,5,28225,0.0-5.0-0.0-0.0,yas2e2mcsw,yas2e2mcsw,non_conventional,,../data/raw/scaled_stimuli_normed/1_request_soup.wav,,,request,soup,1.0,nonconventional,,,,No,Male,Yes,4,19,No
6,,448.7649999991845,html-button-response,6,28928,0.0-5.0-0.0-1.0,yas2e2mcsw,yas2e2mcsw,non_conventional,,,0.0,,request,soup,1.0,nonconventional,,,Request,No,Male,Yes,4,19,No
7,,,audio-button-response,7,31081,0.0-5.0-1.0-0.0,yas2e2mcsw,yas2e2mcsw,non_conventional,,../data/raw/scaled_stimuli_normed/1_request_car.wav,,,request,car,1.0,nonconventional,,,,No,Male,Yes,4,19,No
8,,620.7400000002963,html-button-response,8,31970,0.0-5.0-1.0-1.0,yas2e2mcsw,yas2e2mcsw,non_conventional,,,1.0,,request,car,1.0,nonconventional,,,Non-Request,No,Male,Yes,4,19,No
9,,,audio-button-response,9,34142,0.0-5.0-2.0-0.0,yas2e2mcsw,yas2e2mcsw,non_conventional,,../data/raw/scaled_stimuli_normed/1_request_laptop.wav,,,request,laptop,1.0,nonconventional,,,,No,Male,Yes,4,19,No
10,,1577.8949999985346,html-button-response,10,35978,0.0-5.0-2.0-1.0,yas2e2mcsw,yas2e2mcsw,non_conventional,,,1.0,,request,laptop,1.0,nonconventional,,,Non-Request,No,Male,Yes,4,19,No
11,,,audio-button-response,11,38091,0.0-5.0-3.0-0.0,yas2e2mcsw,yas2e2mcsw,non_conventional,,../data/raw/scaled_stimuli_normed/1_request_phone.wav,,,request,phone,1.0,nonconventional,,,,No,Male,Yes,4,19,No
12,,318.344999999681,html-button-response,12,38661,0.0-5.0-3.0-1.0,yas2e2mcsw,yas2e2mcsw,non_conventional,,,0.0,,request,phone,1.0,nonconventional,,,Request,No,Male,Yes,4,19,No
13,,,audio-button-response,13,40702,0.0-5.0-4.0-0.0,yas2e2mcsw,yas2e2mcsw,non_conventional,,../data/raw/scaled_stimuli_normed/1_statement_soup.wav,,,statement,soup,1.0,nonconventional,,,,No,Male,Yes,4,19,No
14,,453.3800000008341,html-button-response,14,41412,0.0-5.0-4.0-1.0,yas2e2mcsw,yas2e2mcsw,non_conventional,,,0.0,,statement,soup,1.0,nonconventional,,,Request,Yes,Male,Yes,4,19,No
15,,,audio-button-response,15,43329,0.0-5.0-5.0-0.0,yas2e2mcsw,yas2e2mcsw,non_conventional,,../data/raw/scaled_stimuli_normed/1_statement_office.wav,,,statement,office,1.0,nonconventional,,,,No,Male,Yes,4,19,No
16,,612.0100000007368,html-button-response,16,44202,0.0-5.0-5.0-1.0,yas2e2mcsw,yas2e2mcsw,non_conventional,,,0.0,,statement,office,1.0,nonconventional,,,Request,No,Male,Yes,4,19,No
17,,,audio-button-response,17,46593,0.0-5.0-6.0-0.0,yas2e2mcsw,yas2e2mcsw,non_conventional,,../data/raw/scaled_stimuli_normed/1_request_back.wav,,,request,back,1.0,nonconventional,,,,No,Male,Yes,4,19,No
18,,324.5100000003731,html-button-response,18,47170,0.0-5.0-6.0-1.0,yas2e2mcsw,yas2e2mcsw,non_conventional,,,1.0,,request,back,1.0,nonconventional,,,Non-Request,No,Male,Yes,4,19,No
19,,,audio-button-response,19,49562,0.0-5.0-7.0-0.0,yas2e2mcsw,yas2e2mcsw,non_conventional,,../data/raw/scaled_stimuli_normed/1_statement_car.wav,,,statement,car,1.0,nonconventional,,,,No,Male,Yes,4,19,No
20,,279.37999999994645,html-button-response,20,50110,0.0-5.0-7.0-1.0,yas2e2mcsw,yas2e2mcsw,non_conventional,,,1.0,,statement,car,1.0,nonconventional,,,Non-Request,Yes,Male,Yes,4,19,No
21,,,audio-button-response,21,52514,0.0-5.0-8.0-0.0,yas2e2mcsw,yas2e2mcsw,non_conventional,,../data/raw/scaled_stimuli_normed/1_statement_laptop.wav,,,statement,laptop,1.0,nonconventional,,,,No,Male,Yes,4,19,No
22,,411.95999999945343,html-button-response,22,53192,0.0-5.0-8.0-1.0,yas2e2mcsw,yas2e2mcsw,non_conventional,,,1.0,,statement,laptop,1.0,nonconventional,,,Non-Request,Yes,Male,Yes,4,19,No
23,,,audio-button-response,23,55202,0.0-5.0-9.0-0.0,yas2e2mcsw,yas2e2mcsw,non_conventional,,../data/raw/scaled_stimuli_normed/1_request_office.wav,,,request,office,1.0,nonconventional,,,,No,Male,Yes,4,19,No
24,,644.5350000012695,html-button-response,24,56108,0.0-5.0-9.0-1.0,yas2e2mcsw,yas2e2mcsw,non_conventional,,,1.0,,request,office,1.0,nonconventional,,,Non-Request,Yes,Male,Yes,4,19,No
25,,,audio-button-response,25,58334,0.0-5.0-10.0-0.0,yas2e2mcsw,yas2e2mcsw,non_conventional,,../data/raw/scaled_stimuli_normed/1_statement_back.wav,,,statement,back,1.0,nonconventional,,,,No,Male,Yes,4,19,No
26,,897.7849999992031,html-button-response,26,59488,0.0-5.0-10.0-1.0,yas2e2mcsw,yas2e2mcsw,non_conventional,,,0.0,,statement,back,1.0,nonconventional,,,Request,Yes,Male,Yes,4,19,No
27,,,audio-button-response,27,61644,0.0-5.0-11.0-0.0,yas2e2mcsw,yas2e2mcsw,non_conventional,,../data/raw/scaled_stimuli_normed/1_statement_phone.wav,,,statement,phone,1.0,nonconventional,,,,No,Male,Yes,4,19,No
28,,658.1100000003063,html-button-response,28,62558,0.0-5.0-11.0-1.0,yas2e2mcsw,yas2e2mcsw,non_conventional,,,1.0,,statement,phone,1.0,nonconventional,,,Non-Request,Yes,Male,Yes,4,19,No
29,,,audio-button-response,29,64401,0.0-6.0-0.0-0.0,yas2e2mcsw,yas2e2mcsw,non_conventional,,../data/raw/scaled_stimuli_normed/2_request_phone.wav,,,request,phone,2.0,nonconventional,,,,No,Male,Yes,4,19,No
30,,321.96000000112684,html-button-response,30,64992,0.0-6.0-0.0-1.0,yas2e2mcsw,yas2e2mcsw,non_conventional,,,1.0,,request,phone,2.0,nonconventional,,,Non-Request,No,Male,Yes,4,19,No
31,,,audio-button-response,31,66590,0.0-6.0-1.0-0.0,yas2e2mcsw,yas2e2mcsw,non_conventional,,../data/raw/scaled_stimuli_normed/2_statement_soup.wav,,,statement,soup,2.0,nonconventional,,,,No,Male,Yes,4,19,No
32,,446.09499999933183,html-button-response,32,67296,0.0-6.0-1.0-1.0,yas2e2mcsw,yas2e2mcsw,non_conventional,,,0.0,,statement,soup,2.0,nonconventional,,,Request,No,Male,Yes,4,19,No
33,,,audio-button-response,33,69289,0.0-6.0-2.0-0.0,yas2e2mcsw,yas2e2mcsw,non_conventional,,../data/raw/scaled_stimuli_normed/2_statement_car.wav,,,statement,car,2.0,nonconventional,,,,No,Male,Yes,4,19,No
34,,512.3149999999441,html-button-response,34,70068,0.0-6.0-2.0-1.0,yas2e2mcsw,yas2e2mcsw,non_conventional,,,0.0,,statement,car,2.0,nonconventional,,,Request,No,Male,Yes,4,19,No
35,,,audio-button-response,35,72232,0.0-6.0-3.0-0.0,yas2e2mcsw,yas2e2mcsw,non_conventional,,../data/raw/scaled_stimuli_normed/2_request_back.wav,,,request,back,2.0,nonconventional,,,,No,Male,Yes,4,19,No
36,,1122.5400000002992,html-button-response,36,73612,0.0-6.0-3.0-1.0,yas2e2mcsw,yas2e2mcsw,non_conventional,,,0.0,,request,back,2.0,nonconventional,,,Request,No,Male,Yes,4,19,No
37,,,audio-button-response,37,75561,0.0-6.0-4.0-0.0,yas2e2mcsw,yas2e2mcsw,non_conventional,,../data/raw/scaled_stimuli_normed/2_request_office.wav,,,request,office,2.0,nonconventional,,,,No,Male,Yes,4,19,No
38,,317.6499999990483,html-button-response,38,76130,0.0-6.0-4.0-1.0,yas2e2mcsw,yas2e2mcsw,non_conventional,,,1.0,,request,office,2.0,nonconventional,,,Non-Request,No,Male,Yes,4,19,No
39,,,audio-button-response,39,77854,0.0-6.0-5.0-0.0,yas2e2mcsw,yas2e2mcsw,non_conventional,,../data/raw/scaled_stimuli_normed/2_request_laptop.wav,,,request,laptop,2.0,nonconventional,,,,No,Male,Yes,4,19,No
40,,622.1199999999952,html-button-response,40,78738,0.0-6.0-5.0-1.0,yas2e2mcsw,yas2e2mcsw,non_conventional,,,1.0,,request,laptop,2.0,nonconventional,,,Non-Request,No,Male,Yes,4,19,No
41,,,audio-button-response,41,80624,0.0-6.0-6.0-0.0,yas2e2mcsw,yas2e2mcsw,non_conventional,,../data/raw/scaled_stimuli_normed/2_request_car.wav,,,request,car,2.0,nonconventional,,,,No,Male,Yes,4,19,No
42,,264.2700000014884,html-button-response,42,81154,0.0-6.0-6.0-1.0,yas2e2mcsw,yas2e2mcsw,non_conventional,,,1.0,,request,car,2.0,nonconventional,,,Non-Request,Yes,Male,Yes,4,19,No
43,,,audio-button-response,43,83301,0.0-6.0-7.0-0.0,yas2e2mcsw,yas2e2mcsw,non_conventional,,../data/raw/scaled_stimuli_normed/2_statement_office.wav,,,statement,office,2.0,nonconventional,,,,No,Male,Yes,4,19,No
44,,572.1049999992829,html-button-response,44,84132,0.0-6.0-7.0-1.0,yas2e2mcsw,yas2e2mcsw,non_conventional,,,0.0,,statement,office,2.0,nonconventional,,,Request,Yes,Male,Yes,4,19,No
45,,,audio-button-response,45,85882,0.0-6.0-8.0-0.0,yas2e2mcsw,yas2e2mcsw,non_conventional,,../data/raw/scaled_stimuli_normed/2_statement_laptop.wav,,,statement,laptop,2.0,nonconventional,,,,No,Male,Yes,4,19,No
46,,3514.040000000023,html-button-response,46,89654,0.0-6.0-8.0-1.0,yas2e2mcsw,yas2e2mcsw,non_conventional,,,1.0,,statement,laptop,2.0,nonconventional,,,Non-Request,Yes,Male,Yes,4,19,No
47,,,audio-button-response,47,91591,0.0-6.0-9.0-0.0,yas2e2mcsw,yas2e2mcsw,non_conventional,,../data/raw/scaled_stimuli_normed/2_statement_back.wav,,,statement,back,2.0,nonconventional,,,,No,Male,Yes,4,19,No
48,,13372.255000000225,html-button-response,48,105232,0.0-6.0-9.0-1.0,yas2e2mcsw,yas2e2mcsw,non_conventional,,,1.0,,statement,back,2.0,nonconventional,,,Non-Request,Yes,Male,Yes,4,19,No
49,,,audio-button-response,49,106852,0.0-6.0-10.0-0.0,yas2e2mcsw,yas2e2mcsw,non_conventional,,../data/raw/scaled_stimuli_normed/2_statement_phone.wav,,,statement,phone,2.0,nonconventional,,,,No,Male,Yes,4,19,No
50,,634.9499999996624,html-button-response,50,107738,0.0-6.0-10.0-1.0,yas2e2mcsw,yas2e2mcsw,non_conventional,,,0.0,,statement,phone,2.0,nonconventional,,,Request,Yes,Male,Yes,4,19,No
51,,,audio-button-response,51,109452,0.0-6.0-11.0-0.0,yas2e2mcsw,yas2e2mcsw,non_conventional,,../data/raw/scaled_stimuli_normed/2_request_soup.wav,,,request,soup,2.0,nonconventional,,,,No,Male,Yes,4,19,No
52,,289.15000000051805,html-button-response,52,109992,0.0-6.0-11.0-1.0,yas2e2mcsw,yas2e2mcsw,non_conventional,,,0.0,,request,soup,2.0,nonconventional,,,Request,Yes,Male,Yes,4,19,No
53,,,audio-button-response,53,112452,0.0-7.0-0.0-0.0,yas2e2mcsw,yas2e2mcsw,non_conventional,,../data/raw/scaled_stimuli_normed/20_request_back.wav,,,request,back,20.0,nonconventional,,,,No,Male,Yes,4,19,No
54,,552.4900000000343,html-button-response,54,113256,0.0-7.0-0.0-1.0,yas2e2mcsw,yas2e2mcsw,non_conventional,,,1.0,,request,back,20.0,nonconventional,,,Non-Request,No,Male,Yes,4,19,No
55,,,audio-button-response,55,115532,0.0-7.0-1.0-0.0,yas2e2mcsw,yas2e2mcsw,non_conventional,,../data/raw/scaled_stimuli_normed/20_request_car.wav,,,request,car,20.0,nonconventional,,,,No,Male,Yes,4,19,No
56,,398.1850000000122,html-button-response,56,116184,0.0-7.0-1.0-1.0,yas2e2mcsw,yas2e2mcsw,non_conventional,,,0.0,,request,car,20.0,nonconventional,,,Request,No,Male,Yes,4,19,No
57,,,audio-button-response,57,118652,0.0-7.0-2.0-0.0,yas2e2mcsw,yas2e2mcsw,non_conventional,,../data/raw/scaled_stimuli_normed/20_request_office.wav,,,request,office,20.0,nonconventional,,,,No,Male,Yes,4,19,No
58,,246.98499999976772,html-button-response,58,119151,0.0-7.0-2.0-1.0,yas2e2mcsw,yas2e2mcsw,non_conventional,,,0.0,,request,office,20.0,nonconventional,,,Request,No,Male,Yes,4,19,No
59,,,audio-button-response,59,121032,0.0-7.0-3.0-0.0,yas2e2mcsw,yas2e2mcsw,non_conventional,,../data/raw/scaled_stimuli_normed/20_request_soup.wav,,,request,soup,20.0,nonconventional,,,,No,Male,Yes,4,19,No
60,,994.0999999998894,html-button-response,60,122284,0.0-7.0-3.0-1.0,yas2e2mcsw,yas2e2mcsw,non_conventional,,,0.0,,request,soup,20.0,nonconventional,,,Request,No,Male,Yes,4,19,No
61,,,audio-button-response,61,124432,0.0-7.0-4.0-0.0,yas2e2mcsw,yas2e2mcsw,non_conventional,,../data/raw/scaled_stimuli_normed/20_statement_car.wav,,,statement,car,20.0,nonconventional,,,,No,Male,Yes,4,19,No
62,,325.7749999993393,html-button-response,62,125011,0.0-7.0-4.0-1.0,yas2e2mcsw,yas2e2mcsw,non_conventional,,,1.0,,statement,car,20.0,nonconventional,,,Non-Request,Yes,Male,Yes,4,19,No
63,,,audio-button-response,63,126772,0.0-7.0-5.0-0.0,yas2e2mcsw,yas2e2mcsw,non_conventional,,../data/raw/scaled_stimuli_normed/20_statement_phone.wav,,,statement,phone,20.0,nonconventional,,,,No,Male,Yes,4,19,No
64,,321.62000000062113,html-button-response,64,127346,0.0-7.0-5.0-1.0,yas2e2mcsw,yas2e2mcsw,non_conventional,,,0.0,,statement,phone,20.0,nonconventional,,,Request,No,Male,Yes,4,19,No
65,,,audio-button-response,65,129592,0.0-7.0-6.0-0.0,yas2e2mcsw,yas2e2mcsw,non_conventional,,../data/raw/scaled_stimuli_normed/20_statement_back.wav,,,statement,back,20.0,nonconventional,,,,No,Male,Yes,4,19,No
66,,519.9649999995163,html-button-response,66,130364,0.0-7.0-6.0-1.0,yas2e2mcsw,yas2e2mcsw,non_conventional,,,1.0,,statement,back,20.0,nonconventional,,,Non-Request,Yes,Male,Yes,4,19,No
67,,,audio-button-response,67,132422,0.0-7.0-7.0-0.0,yas2e2mcsw,yas2e2mcsw,non_conventional,,../data/raw/scaled_stimuli_normed/20_statement_office.wav,,,statement,office,20.0,nonconventional,,,,No,Male,Yes,4,19,No
68,,272.0950000002631,html-button-response,68,132952,0.0-7.0-7.0-1.0,yas2e2mcsw,yas2e2mcsw,non_conventional,,,1.0,,statement,office,20.0,nonconventional,,,Non-Request,Yes,Male,Yes,4,19,No
69,,,audio-button-response,69,134622,0.0-7.0-8.0-0.0,yas2e2mcsw,yas2e2mcsw,non_conventional,,../data/raw/scaled_stimuli_normed/20_statement_soup.wav,,,statement,soup,20.0,nonconventional,,,,No,Male,Yes,4,19,No
70,,1017.8200000009384,html-button-response,70,135892,0.0-7.0-8.0-1.0,yas2e2mcsw,yas2e2mcsw,non_conventional,,,0.0,,statement,soup,20.0,nonconventional,,,Request,Yes,Male,Yes,4,19,No
71,,,audio-button-response,71,137852,0.0-7.0-9.0-0.0,yas2e2mcsw,yas2e2mcsw,non_conventional,,../data/raw/scaled_stimuli_normed/20_statement_laptop.wav,,,statement,laptop,20.0,nonconventional,,,,No,Male,Yes,4,19,No
72,,570.5749999997497,html-button-response,72,138691,0.0-7.0-9.0-1.0,yas2e2mcsw,yas2e2mcsw,non_conventional,,,1.0,,statement,laptop,20.0,nonconventional,,,Non-Request,No,Male,Yes,4,19,No
73,,,audio-button-response,73,141092,0.0-7.0-10.0-0.0,yas2e2mcsw,yas2e2mcsw,non_conventional,,../data/raw/scaled_stimuli_normed/20_request_phone.wav,,,request,phone,20.0,nonconventional,,,,No,Male,Yes,4,19,No
74,,280.1600000002363,html-button-response,74,141640,0.0-7.0-10.0-1.0,yas2e2mcsw,yas2e2mcsw,non_conventional,,,1.0,,request,phone,20.0,nonconventional,,,Non-Request,Yes,Male,Yes,4,19,No
75,,,audio-button-response,75,143941,0.0-7.0-11.0-0.0,yas2e2mcsw,yas2e2mcsw,non_conventional,,../data/raw/scaled_stimuli_normed/20_request_laptop.wav,,,request,laptop,20.0,nonconventional,,,,No,Male,Yes,4,19,No
76,,225.8050000000221,html-button-response,76,144426,0.0-7.0-11.0-1.0,yas2e2mcsw,yas2e2mcsw,non_conventional,,,1.0,,request,laptop,20.0,nonconventional,,,Non-Request,Yes,Male,Yes,4,19,No
77,,,audio-button-response,77,146852,0.0-8.0-0.0-0.0,yas2e2mcsw,yas2e2mcsw,non_conventional,,../data/raw/scaled_stimuli_normed/11_request_soup.wav,,,request,soup,11.0,nonconventional,,,,No,Male,Yes,4,19,No
78,,342.81000000011414,html-button-response,78,147446,0.0-8.0-0.0-1.0,yas2e2mcsw,yas2e2mcsw,non_conventional,,,0.0,,request,soup,11.0,nonconventional,,,Request,No,Male,Yes,4,19,No
79,,,audio-button-response,79,148922,0.0-8.0-1.0-0.0,yas2e2mcsw,yas2e2mcsw,non_conventional,,../data/raw/scaled_stimuli_normed/11_statement_soup.wav,,,statement,soup,11.0,nonconventional,,,,No,Male,Yes,4,19,No
80,,228.32000000018158,html-button-response,80,149418,0.0-8.0-1.0-1.0,yas2e2mcsw,yas2e2mcsw,non_conventional,,,0.0,,statement,soup,11.0,nonconventional,,,Request,Yes,Male,Yes,4,19,No
81,,,audio-button-response,81,151322,0.0-8.0-2.0-0.0,yas2e2mcsw,yas2e2mcsw,non_conventional,,../data/raw/scaled_stimuli_normed/11_statement_laptop.wav,,,statement,laptop,11.0,nonconventional,,,,No,Male,Yes,4,19,No
82,,486.5150000004797,html-button-response,82,152076,0.0-8.0-2.0-1.0,yas2e2mcsw,yas2e2mcsw,non_conventional,,,1.0,,statement,laptop,11.0,nonconventional,,,Non-Request,No,Male,Yes,4,19,No
83,,,audio-button-response,83,153930,0.0-8.0-3.0-0.0,yas2e2mcsw,yas2e2mcsw,non_conventional,,../data/raw/scaled_stimuli_normed/11_statement_car.wav,,,statement,car,11.0,nonconventional,,,,No,Male,Yes,4,19,No
84,,252.26499999917,html-button-response,84,154452,0.0-8.0-3.0-1.0,yas2e2mcsw,yas2e2mcsw,non_conventional,,,1.0,,statement,car,11.0,nonconventional,,,Non-Request,No,Male,Yes,4,19,No
85,,,audio-button-response,85,156614,0.0-8.0-4.0-0.0,yas2e2mcsw,yas2e2mcsw,non_conventional,,../data/raw/scaled_stimuli_normed/11_request_car.wav,,,request,car,11.0,nonconventional,,,,No,Male,Yes,4,19,No
86,,581.0999999994237,html-button-response,86,157446,0.0-8.0-4.0-1.0,yas2e2mcsw,yas2e2mcsw,non_conventional,,,0.0,,request,car,11.0,nonconventional,,,Request,Yes,Male,Yes,4,19,No
87,,,audio-button-response,87,159964,0.0-8.0-5.0-0.0,yas2e2mcsw,yas2e2mcsw,non_conventional,,../data/raw/scaled_stimuli_normed/11_request_phone.wav,,,request,phone,11.0,nonconventional,,,,No,Male,Yes,4,19,No
88,,299.710000001156,html-button-response,88,160516,0.0-8.0-5.0-1.0,yas2e2mcsw,yas2e2mcsw,non_conventional,,,0.0,,request,phone,11.0,nonconventional,,,Request,No,Male,Yes,4,19,No
89,,,audio-button-response,89,162512,0.0-8.0-6.0-0.0,yas2e2mcsw,yas2e2mcsw,non_conventional,,../data/raw/scaled_stimuli_normed/11_statement_back.wav,,,statement,back,11.0,nonconventional,,,,No,Male,Yes,4,19,No
90,,381.3300000001618,html-button-response,90,163144,0.0-8.0-6.0-1.0,yas2e2mcsw,yas2e2mcsw,non_conventional,,,1.0,,statement,back,11.0,nonconventional,,,Non-Request,No,Male,Yes,4,19,No
91,,,audio-button-response,91,165900,0.0-8.0-7.0-0.0,yas2e2mcsw,yas2e2mcsw,non_conventional,,../data/raw/scaled_stimuli_normed/11_request_laptop.wav,,,request,laptop,11.0,nonconventional,,,,No,Male,Yes,4,19,No
92,,380.1100000000442,html-button-response,92,166532,0.0-8.0-7.0-1.0,yas2e2mcsw,yas2e2mcsw,non_conventional,,,0.0,,request,laptop,11.0,nonconventional,,,Request,Yes,Male,Yes,4,19,No
93,,,audio-button-response,93,168659,0.0-8.0-8.0-0.0,yas2e2mcsw,yas2e2mcsw,non_conventional,,../data/raw/scaled_stimuli_normed/11_request_office.wav,,,request,office,11.0,nonconventional,,,,No,Male,Yes,4,19,No
94,,478.06999999919213,html-button-response,94,169408,0.0-8.0-8.0-1.0,yas2e2mcsw,yas2e2mcsw,non_conventional,,,0.0,,request,office,11.0,nonconventional,,,Request,No,Male,Yes,4,19,No
95,,,audio-button-response,95,172072,0.0-8.0-9.0-0.0,yas2e2mcsw,yas2e2mcsw,non_conventional,,../data/raw/scaled_stimuli_normed/11_request_back.wav,,,request,back,11.0,nonconventional,,,,No,Male,Yes,4,19,No
96,,290.71000000112684,html-button-response,96,172620,0.0-8.0-9.0-1.0,yas2e2mcsw,yas2e2mcsw,non_conventional,,,1.0,,request,back,11.0,nonconventional,,,Non-Request,Yes,Male,Yes,4,19,No
97,,,audio-button-response,97,174431,0.0-8.0-10.0-0.0,yas2e2mcsw,yas2e2mcsw,non_conventional,,../data/raw/scaled_stimuli_normed/11_statement_office.wav,,,statement,office,11.0,nonconventional,,,,No,Male,Yes,4,19,No
98,,850.1599999999452,html-button-response,98,175540,0.0-8.0-10.0-1.0,yas2e2mcsw,yas2e2mcsw,non_conventional,,,0.0,,statement,office,11.0,nonconventional,,,Request,Yes,Male,Yes,4,19,No
99,,,audio-button-response,99,177074,0.0-8.0-11.0-0.0,yas2e2mcsw,yas2e2mcsw,non_conventional,,../data/raw/scaled_stimuli_normed/11_statement_phone.wav,,,statement,phone,11.0,nonconventional,,,,No,Male,Yes,4,19,No
100,,796.9350000003177,html-button-response,100,178122,0.0-8.0-11.0-1.0,yas2e2mcsw,yas2e2mcsw,non_conventional,,,0.0,,statement,phone,11.0,nonconventional,,,Request,Yes,Male,Yes,4,19,No
101,,,audio-button-response,101,180232,0.0-9.0-0.0-0.0,yas2e2mcsw,yas2e2mcsw,non_conventional,,../data/raw/scaled_stimuli_normed/22_request_back.wav,,,request,back,22.0,nonconventional,,,,No,Male,Yes,4,19,No
102,,283.6800000004587,html-button-response,102,180768,0.0-9.0-0.0-1.0,yas2e2mcsw,yas2e2mcsw,non_conventional,,,1.0,,request,back,22.0,nonconventional,,,Non-Request,No,Male,Yes,4,19,No
103,,,audio-button-response,103,183072,0.0-9.0-1.0-0.0,yas2e2mcsw,yas2e2mcsw,non_conventional,,../data/raw/scaled_stimuli_normed/22_statement_soup.wav,,,statement,soup,22.0,nonconventional,,,,No,Male,Yes,4,19,No
104,,936.7299999994284,html-button-response,104,184266,0.0-9.0-1.0-1.0,yas2e2mcsw,yas2e2mcsw,non_conventional,,,1.0,,statement,soup,22.0,nonconventional,,,Non-Request,No,Male,Yes,4,19,No
105,,,audio-button-response,105,186222,0.0-9.0-2.0-0.0,yas2e2mcsw,yas2e2mcsw,non_conventional,,../data/raw/scaled_stimuli_normed/22_request_car.wav,,,request,car,22.0,nonconventional,,,,No,Male,Yes,4,19,No
106,,278.6899999991874,html-button-response,106,186754,0.0-9.0-2.0-1.0,yas2e2mcsw,yas2e2mcsw,non_conventional,,,0.0,,request,car,22.0,nonconventional,,,Request,No,Male,Yes,4,19,No
107,,,audio-button-response,107,188941,0.0-9.0-3.0-0.0,yas2e2mcsw,yas2e2mcsw,non_conventional,,../data/raw/scaled_stimuli_normed/22_statement_car.wav,,,statement,car,22.0,nonconventional,,,,No,Male,Yes,4,19,No
108,,304.82499999925494,html-button-response,108,189514,0.0-9.0-3.0-1.0,yas2e2mcsw,yas2e2mcsw,non_conventional,,,1.0,,statement,car,22.0,nonconventional,,,Non-Request,Yes,Male,Yes,4,19,No
109,,,audio-button-response,109,191689,0.0-9.0-4.0-0.0,yas2e2mcsw,yas2e2mcsw,non_conventional,,../data/raw/scaled_stimuli_normed/22_statement_laptop.wav,,,statement,laptop,22.0,nonconventional,,,,No,Male,Yes,4,19,No
110,,504.119999999617,html-button-response,110,192446,0.0-9.0-4.0-1.0,yas2e2mcsw,yas2e2mcsw,non_conventional,,,0.0,,statement,laptop,22.0,nonconventional,,,Request,No,Male,Yes,4,19,No
111,,,audio-button-response,111,194411,0.0-9.0-5.0-0.0,yas2e2mcsw,yas2e2mcsw,non_conventional,,../data/raw/scaled_stimuli_normed/22_statement_back.wav,,,statement,back,22.0,nonconventional,,,,No,Male,Yes,4,19,No
112,,418.5900000011316,html-button-response,112,195082,0.0-9.0-5.0-1.0,yas2e2mcsw,yas2e2mcsw,non_conventional,,,0.0,,statement,back,22.0,nonconventional,,,Request,Yes,Male,Yes,4,19,No
113,,,audio-button-response,113,197322,0.0-9.0-6.0-0.0,yas2e2mcsw,yas2e2mcsw,non_conventional,,../data/raw/scaled_stimuli_normed/22_statement_office.wav,,,statement,office,22.0,nonconventional,,,,No,Male,Yes,4,19,No
114,,358.51499999989755,html-button-response,114,197938,0.0-9.0-6.0-1.0,yas2e2mcsw,yas2e2mcsw,non_conventional,,,1.0,,statement,office,22.0,nonconventional,,,Non-Request,No,Male,Yes,4,19,No
115,,,audio-button-response,115,200301,0.0-9.0-7.0-0.0,yas2e2mcsw,yas2e2mcsw,non_conventional,,../data/raw/scaled_stimuli_normed/22_request_laptop.wav,,,request,laptop,22.0,nonconventional,,,,No,Male,Yes,4,19,No
116,,328.43499999941565,html-button-response,116,200882,0.0-9.0-7.0-1.0,yas2e2mcsw,yas2e2mcsw,non_conventional,,,0.0,,request,laptop,22.0,nonconventional,,,Request,Yes,Male,Yes,4,19,No
117,,,audio-button-response,117,202782,0.0-9.0-8.0-0.0,yas2e2mcsw,yas2e2mcsw,non_conventional,,../data/raw/scaled_stimuli_normed/22_statement_phone.wav,,,statement,phone,22.0,nonconventional,,,,No,Male,Yes,4,19,No
118,,328.6149999985355,html-button-response,118,203368,0.0-9.0-8.0-1.0,yas2e2mcsw,yas2e2mcsw,non_conventional,,,1.0,,statement,phone,22.0,nonconventional,,,Non-Request,No,Male,Yes,4,19,No
119,,,audio-button-response,119,205262,0.0-9.0-9.0-0.0,yas2e2mcsw,yas2e2mcsw,non_conventional,,../data/raw/scaled_stimuli_normed/22_request_phone.wav,,,request,phone,22.0,nonconventional,,,,No,Male,Yes,4,19,No
120,,298.26000000140635,html-button-response,120,205812,0.0-9.0-9.0-1.0,yas2e2mcsw,yas2e2mcsw,non_conventional,,,0.0,,request,phone,22.0,nonconventional,,,Request,Yes,Male,Yes,4,19,No
121,,,audio-button-response,121,207981,0.0-9.0-10.0-0.0,yas2e2mcsw,yas2e2mcsw,non_conventional,,../data/raw/scaled_stimuli_normed/22_request_soup.wav,,,request,soup,22.0,nonconventional,,,,No,Male,Yes,4,19,No
122,,204.1900000003516,html-button-response,122,208444,0.0-9.0-10.0-1.0,yas2e2mcsw,yas2e2mcsw,non_conventional,,,0.0,,request,soup,22.0,nonconventional,,,Request,Yes,Male,Yes,4,19,No
123,,,audio-button-response,123,210782,0.0-9.0-11.0-0.0,yas2e2mcsw,yas2e2mcsw,non_conventional,,../data/raw/scaled_stimuli_normed/22_request_office.wav,,,request,office,22.0,nonconventional,,,,No,Male,Yes,4,19,No
124,,340.6099999992876,html-button-response,124,211376,0.0-9.0-11.0-1.0,yas2e2mcsw,yas2e2mcsw,non_conventional,,,0.0,,request,office,22.0,nonconventional,,,Request,Yes,Male,Yes,4,19,No
125,,,audio-button-response,125,212832,0.0-10.0-0.0-0.0,yas2e2mcsw,yas2e2mcsw,non_conventional,,../data/raw/scaled_stimuli_normed/4_statement_phone.wav,,,statement,phone,4.0,nonconventional,,,,No,Male,Yes,4,19,No
126,,584.5050000007323,html-button-response,126,213668,0.0-10.0-0.0-1.0,yas2e2mcsw,yas2e2mcsw,non_conventional,,,1.0,,statement,phone,4.0,nonconventional,,,Non-Request,No,Male,Yes,4,19,No
127,,,audio-button-response,127,215511,0.0-10.0-1.0-0.0,yas2e2mcsw,yas2e2mcsw,non_conventional,,../data/raw/scaled_stimuli_normed/4_request_office.wav,,,request,office,4.0,nonconventional,,,,No,Male,Yes,4,19,No
128,,302.8699999995297,html-button-response,128,216066,0.0-10.0-1.0-1.0,yas2e2mcsw,yas2e2mcsw,non_conventional,,,1.0,,request,office,4.0,nonconventional,,,Non-Request,No,Male,Yes,4,19,No
129,,,audio-button-response,129,217812,0.0-10.0-2.0-0.0,yas2e2mcsw,yas2e2mcsw,non_conventional,,../data/raw/scaled_stimuli_normed/4_statement_car.wav,,,statement,car,4.0,nonconventional,,,,No,Male,Yes,4,19,No
130,,194.0799999993178,html-button-response,130,218258,0.0-10.0-2.0-1.0,yas2e2mcsw,yas2e2mcsw,non_conventional,,,0.0,,statement,car,4.0,nonconventional,,,Request,No,Male,Yes,4,19,No
131,,,audio-button-response,131,219799,0.0-10.0-3.0-0.0,yas2e2mcsw,yas2e2mcsw,non_conventional,,../data/raw/scaled_stimuli_normed/4_statement_office.wav,,,statement,office,4.0,nonconventional,,,,No,Male,Yes,4,19,No
132,,317.31500000023516,html-button-response,132,220368,0.0-10.0-3.0-1.0,yas2e2mcsw,yas2e2mcsw,non_conventional,,,0.0,,statement,office,4.0,nonconventional,,,Request,Yes,Male,Yes,4,19,No
133,,,audio-button-response,133,221900,0.0-10.0-4.0-0.0,yas2e2mcsw,yas2e2mcsw,non_conventional,,../data/raw/scaled_stimuli_normed/4_request_phone.wav,,,request,phone,4.0,nonconventional,,,,No,Male,Yes,4,19,No
134,,264.5450000000128,html-button-response,134,222416,0.0-10.0-4.0-1.0,yas2e2mcsw,yas2e2mcsw,non_conventional,,,1.0,,request,phone,4.0,nonconventional,,,Non-Request,Yes,Male,Yes,4,19,No
135,,,audio-button-response,135,224062,0.0-10.0-5.0-0.0,yas2e2mcsw,yas2e2mcsw,non_conventional,,../data/raw/scaled_stimuli_normed/4_request_soup.wav,,,request,soup,4.0,nonconventional,,,,No,Male,Yes,4,19,No
136,,329.20000000012806,html-button-response,136,224644,0.0-10.0-5.0-1.0,yas2e2mcsw,yas2e2mcsw,non_conventional,,,0.0,,request,soup,4.0,nonconventional,,,Request,No,Male,Yes,4,19,No
137,,,audio-button-response,137,226162,0.0-10.0-6.0-0.0,yas2e2mcsw,yas2e2mcsw,non_conventional,,../data/raw/scaled_stimuli_normed/4_statement_soup.wav,,,statement,soup,4.0,nonconventional,,,,No,Male,Yes,4,19,No
138,,302.0799999994633,html-button-response,138,226732,0.0-10.0-6.0-1.0,yas2e2mcsw,yas2e2mcsw,non_conventional,,,0.0,,statement,soup,4.0,nonconventional,,,Request,Yes,Male,Yes,4,19,No
139,,,audio-button-response,139,228982,0.0-10.0-7.0-0.0,yas2e2mcsw,yas2e2mcsw,non_conventional,,../data/raw/scaled_stimuli_normed/4_request_laptop.wav,,,request,laptop,4.0,nonconventional,,,,No,Male,Yes,4,19,No
140,,272.3200000000361,html-button-response,140,229522,0.0-10.0-7.0-1.0,yas2e2mcsw,yas2e2mcsw,non_conventional,,,1.0,,request,laptop,4.0,nonconventional,,,Non-Request,No,Male,Yes,4,19,No
141,,,audio-button-response,141,231552,0.0-10.0-8.0-0.0,yas2e2mcsw,yas2e2mcsw,non_conventional,,../data/raw/scaled_stimuli_normed/4_request_back.wav,,,request,back,4.0,nonconventional,,,,No,Male,Yes,4,19,No
142,,282.19499999977415,html-button-response,142,232086,0.0-10.0-8.0-1.0,yas2e2mcsw,yas2e2mcsw,non_conventional,,,0.0,,request,back,4.0,nonconventional,,,Request,No,Male,Yes,4,19,No
143,,,audio-button-response,143,234233,0.0-10.0-9.0-0.0,yas2e2mcsw,yas2e2mcsw,non_conventional,,../data/raw/scaled_stimuli_normed/4_request_car.wav,,,request,car,4.0,nonconventional,,,,No,Male,Yes,4,19,No
144,,239.8250000005646,html-button-response,144,234724,0.0-10.0-9.0-1.0,yas2e2mcsw,yas2e2mcsw,non_conventional,,,0.0,,request,car,4.0,nonconventional,,,Request,Yes,Male,Yes,4,19,No
145,,,audio-button-response,145,236502,0.0-10.0-10.0-0.0,yas2e2mcsw,yas2e2mcsw,non_conventional,,../data/raw/scaled_stimuli_normed/4_statement_laptop.wav,,,statement,laptop,4.0,nonconventional,,,,No,Male,Yes,4,19,No
146,,226.77999999903838,html-button-response,146,236981,0.0-10.0-10.0-1.0,yas2e2mcsw,yas2e2mcsw,non_conventional,,,1.0,,statement,laptop,4.0,nonconventional,,,Non-Request,Yes,Male,Yes,4,19,No
147,,,audio-button-response,147,238682,0.0-10.0-11.0-0.0,yas2e2mcsw,yas2e2mcsw,non_conventional,,../data/raw/scaled_stimuli_normed/4_statement_back.wav,,,statement,back,4.0,nonconventional,,,,No,Male,Yes,4,19,No
148,,316.96000000010827,html-button-response,148,239250,0.0-10.0-11.0-1.0,yas2e2mcsw,yas2e2mcsw,non_conventional,,,0.0,,statement,back,4.0,nonconventional,,,Request,Yes,Male,Yes,4,19,No
149,,,audio-button-response,149,240914,0.0-11.0-0.0-0.0,yas2e2mcsw,yas2e2mcsw,non_conventional,,../data/raw/scaled_stimuli_normed/25_statement_phone.wav,,,statement,phone,25.0,nonconventional,,,,No,Male,Yes,4,19,No
150,,236.86499999894292,html-button-response,150,241402,0.0-11.0-0.0-1.0,yas2e2mcsw,yas2e2mcsw,non_conventional,,,0.0,,statement,phone,25.0,nonconventional,,,Request,No,Male,Yes,4,19,No
151,,,audio-button-response,151,242930,0.0-11.0-1.0-0.0,yas2e2mcsw,yas2e2mcsw,non_conventional,,../data/raw/scaled_stimuli_normed/25_request_laptop.wav,,,request,laptop,25.0,nonconventional,,,,No,Male,Yes,4,19,No
152,,230.94999999922584,html-button-response,152,243426,0.0-11.0-1.0-1.0,yas2e2mcsw,yas2e2mcsw,non_conventional,,,1.0,,request,laptop,25.0,nonconventional,,,Non-Request,No,Male,Yes,4,19,No
153,,,audio-button-response,153,245151,0.0-11.0-2.0-0.0,yas2e2mcsw,yas2e2mcsw,non_conventional,,../data/raw/scaled_stimuli_normed/25_request_office.wav,,,request,office,25.0,nonconventional,,,,No,Male,Yes,4,19,No
154,,236.68499999985215,html-button-response,154,245648,0.0-11.0-2.0-1.0,yas2e2mcsw,yas2e2mcsw,non_conventional,,,1.0,,request,office,25.0,nonconventional,,,Non-Request,No,Male,Yes,4,19,No
155,,,audio-button-response,155,247404,0.0-11.0-3.0-0.0,yas2e2mcsw,yas2e2mcsw,non_conventional,,../data/raw/scaled_stimuli_normed/25_statement_back.wav,,,statement,back,25.0,nonconventional,,,,No,Male,Yes,4,19,No
156,,84.419999999227,html-button-response,156,247750,0.0-11.0-3.0-1.0,yas2e2mcsw,yas2e2mcsw,non_conventional,,,0.0,,statement,back,25.0,nonconventional,,,Request,No,Male,Yes,4,19,No
157,,,audio-button-response,157,250074,0.0-11.0-4.0-0.0,yas2e2mcsw,yas2e2mcsw,non_conventional,,../data/raw/scaled_stimuli_normed/25_statement_car.wav,,,statement,car,25.0,nonconventional,,,,No,Male,Yes,4,19,No
158,,389.1100000000442,html-button-response,158,250725,0.0-11.0-4.0-1.0,yas2e2mcsw,yas2e2mcsw,non_conventional,,,0.0,,statement,car,25.0,nonconventional,,,Request,No,Male,Yes,4,19,No
159,,,audio-button-response,159,252402,0.0-11.0-5.0-0.0,yas2e2mcsw,yas2e2mcsw,non_conventional,,../data/raw/scaled_stimuli_normed/25_statement_soup.wav,,,statement,soup,25.0,nonconventional,,,,No,Male,Yes,4,19,No
160,,206.64000000030498,html-button-response,160,252867,0.0-11.0-5.0-1.0,yas2e2mcsw,yas2e2mcsw,non_conventional,,,1.0,,statement,soup,25.0,nonconventional,,,Non-Request,No,Male,Yes,4,19,No
161,,,audio-button-response,161,254704,0.0-11.0-6.0-0.0,yas2e2mcsw,yas2e2mcsw,non_conventional,,../data/raw/scaled_stimuli_normed/25_statement_office.wav,,,statement,office,25.0,nonconventional,,,,No,Male,Yes,4,19,No
162,,137.87500000034925,html-button-response,162,255099,0.0-11.0-6.0-1.0,yas2e2mcsw,yas2e2mcsw,non_conventional,,,1.0,,statement,office,25.0,nonconventional,,,Non-Request,Yes,Male,Yes,4,19,No
163,,,audio-button-response,163,256802,0.0-11.0-7.0-0.0,yas2e2mcsw,yas2e2mcsw,non_conventional,,../data/raw/scaled_stimuli_normed/25_request_soup.wav,,,request,soup,25.0,nonconventional,,,,No,Male,Yes,4,19,No
164,,256.2099999995553,html-button-response,164,257310,0.0-11.0-7.0-1.0,yas2e2mcsw,yas2e2mcsw,non_conventional,,,0.0,,request,soup,25.0,nonconventional,,,Request,Yes,Male,Yes,4,19,No
165,,,audio-button-response,165,259522,0.0-11.0-8.0-0.0,yas2e2mcsw,yas2e2mcsw,non_conventional,,../data/raw/scaled_stimuli_normed/25_request_car.wav,,,request,car,25.0,nonconventional,,,,No,Male,Yes,4,19,No
166,,96.74500000072294,html-button-response,166,259877,0.0-11.0-8.0-1.0,yas2e2mcsw,yas2e2mcsw,non_conventional,,,1.0,,request,car,25.0,nonconventional,,,Non-Request,Yes,Male,Yes,4,19,No
167,,,audio-button-response,167,261992,0.0-11.0-9.0-0.0,yas2e2mcsw,yas2e2mcsw,non_conventional,,../data/raw/scaled_stimuli_normed/25_request_back.wav,,,request,back,25.0,nonconventional,,,,No,Male,Yes,4,19,No
168,,229.15999999892662,html-button-response,168,262479,0.0-11.0-9.0-1.0,yas2e2mcsw,yas2e2mcsw,non_conventional,,,0.0,,request,back,25.0,nonconventional,,,Request,Yes,Male,Yes,4,19,No
169,,,audio-button-response,169,264442,0.0-11.0-10.0-0.0,yas2e2mcsw,yas2e2mcsw,non_conventional,,../data/raw/scaled_stimuli_normed/25_request_phone.wav,,,request,phone,25.0,nonconventional,,,,No,Male,Yes,4,19,No
170,,244.3249999996624,html-button-response,170,264950,0.0-11.0-10.0-1.0,yas2e2mcsw,yas2e2mcsw,non_conventional,,,1.0,,request,phone,25.0,nonconventional,,,Non-Request,Yes,Male,Yes,4,19,No
171,,,audio-button-response,171,266562,0.0-11.0-11.0-0.0,yas2e2mcsw,yas2e2mcsw,non_conventional,,../data/raw/scaled_stimuli_normed/25_statement_laptop.wav,,,statement,laptop,25.0,nonconventional,,,,No,Male,Yes,4,19,No
172,,404.97999999934115,html-button-response,172,267219,0.0-11.0-11.0-1.0,yas2e2mcsw,yas2e2mcsw,non_conventional,,,0.0,,statement,laptop,25.0,nonconventional,,,Request,Yes,Male,Yes,4,19,No
173,,,audio-button-response,173,269040,0.0-12.0-0.0-0.0,yas2e2mcsw,yas2e2mcsw,non_conventional,,../data/raw/scaled_stimuli_normed/18_statement_office.wav,,,statement,office,18.0,nonconventional,,,,No,Male,Yes,4,19,No
174,,820.3300000004238,html-button-response,174,270120,0.0-12.0-0.0-1.0,yas2e2mcsw,yas2e2mcsw,non_conventional,,,1.0,,statement,office,18.0,nonconventional,,,Non-Request,No,Male,Yes,4,19,No
175,,,audio-button-response,175,271800,0.0-12.0-1.0-0.0,yas2e2mcsw,yas2e2mcsw,non_conventional,,../data/raw/scaled_stimuli_normed/18_statement_back.wav,,,statement,back,18.0,nonconventional,,,,No,Male,Yes,4,19,No
176,,532.8200000003562,html-button-response,176,272592,0.0-12.0-1.0-1.0,yas2e2mcsw,yas2e2mcsw,non_conventional,,,1.0,,statement,back,18.0,nonconventional,,,Non-Request,No,Male,Yes,4,19,No
177,,,audio-button-response,177,274272,0.0-12.0-2.0-0.0,yas2e2mcsw,yas2e2mcsw,non_conventional,,../data/raw/scaled_stimuli_normed/18_request_laptop.wav,,,request,laptop,18.0,nonconventional,,,,No,Male,Yes,4,19,No
178,,824.520000000135,html-button-response,178,275364,0.0-12.0-2.0-1.0,yas2e2mcsw,yas2e2mcsw,non_conventional,,,1.0,,request,laptop,18.0,nonconventional,,,Non-Request,No,Male,Yes,4,19,No
179,,,audio-button-response,179,277061,0.0-12.0-3.0-0.0,yas2e2mcsw,yas2e2mcsw,non_conventional,,../data/raw/scaled_stimuli_normed/18_request_office.wav,,,request,office,18.0,nonconventional,,,,No,Male,Yes,4,19,No
180,,313.1150000008638,html-button-response,180,277629,0.0-12.0-3.0-1.0,yas2e2mcsw,yas2e2mcsw,non_conventional,,,0.0,,request,office,18.0,nonconventional,,,Request,Yes,Male,Yes,4,19,No
181,,,audio-button-response,181,279070,0.0-12.0-4.0-0.0,yas2e2mcsw,yas2e2mcsw,non_conventional,,../data/raw/scaled_stimuli_normed/18_statement_phone.wav,,,statement,phone,18.0,nonconventional,,,,No,Male,Yes,4,19,No
182,,2051.985000000044,html-button-response,182,281382,0.0-12.0-4.0-1.0,yas2e2mcsw,yas2e2mcsw,non_conventional,,,1.0,,statement,phone,18.0,nonconventional,,,Non-Request,No,Male,Yes,4,19,No
183,,,audio-button-response,183,283060,0.0-12.0-5.0-0.0,yas2e2mcsw,yas2e2mcsw,non_conventional,,../data/raw/scaled_stimuli_normed/18_request_soup.wav,,,request,soup,18.0,nonconventional,,,,No,Male,Yes,4,19,No
184,,2572.345000000496,html-button-response,184,285902,0.0-12.0-5.0-1.0,yas2e2mcsw,yas2e2mcsw,non_conventional,,,0.0,,request,soup,18.0,nonconventional,,,Request,No,Male,Yes,4,19,No
185,,,audio-button-response,185,287574,0.0-12.0-6.0-0.0,yas2e2mcsw,yas2e2mcsw,non_conventional,,../data/raw/scaled_stimuli_normed/18_request_back.wav,,,request,back,18.0,nonconventional,,,,No,Male,Yes,4,19,No
186,,562.7850000000908,html-button-response,186,288392,0.0-12.0-6.0-1.0,yas2e2mcsw,yas2e2mcsw,non_conventional,,,0.0,,request,back,18.0,nonconventional,,,Request,Yes,Male,Yes,4,19,No
187,,,audio-button-response,187,290119,0.0-12.0-7.0-0.0,yas2e2mcsw,yas2e2mcsw,non_conventional,,../data/raw/scaled_stimuli_normed/18_statement_car.wav,,,statement,car,18.0,nonconventional,,,,No,Male,Yes,4,19,No
188,,513.0100000005914,html-button-response,188,290889,0.0-12.0-7.0-1.0,yas2e2mcsw,yas2e2mcsw,non_conventional,,,0.0,,statement,car,18.0,nonconventional,,,Request,No,Male,Yes,4,19,No
189,,,audio-button-response,189,292561,0.0-12.0-8.0-0.0,yas2e2mcsw,yas2e2mcsw,non_conventional,,../data/raw/scaled_stimuli_normed/18_statement_laptop.wav,,,statement,laptop,18.0,nonconventional,,,,No,Male,Yes,4,19,No
190,,646.4500000001863,html-button-response,190,293466,0.0-12.0-8.0-1.0,yas2e2mcsw,yas2e2mcsw,non_conventional,,,1.0,,statement,laptop,18.0,nonconventional,,,Non-Request,Yes,Male,Yes,4,19,No
191,,,audio-button-response,191,295210,0.0-12.0-9.0-0.0,yas2e2mcsw,yas2e2mcsw,non_conventional,,../data/raw/scaled_stimuli_normed/18_request_car.wav,,,request,car,18.0,nonconventional,,,,No,Male,Yes,4,19,No
192,,659.8800000010524,html-button-response,192,296122,0.0-12.0-9.0-1.0,yas2e2mcsw,yas2e2mcsw,non_conventional,,,0.0,,request,car,18.0,nonconventional,,,Request,Yes,Male,Yes,4,19,No
193,,,audio-button-response,193,297484,0.0-12.0-10.0-0.0,yas2e2mcsw,yas2e2mcsw,non_conventional,,../data/raw/scaled_stimuli_normed/18_request_phone.wav,,,request,phone,18.0,nonconventional,,,,No,Male,Yes,4,19,No
194,,432.1949999993667,html-button-response,194,298169,0.0-12.0-10.0-1.0,yas2e2mcsw,yas2e2mcsw,non_conventional,,,1.0,,request,phone,18.0,nonconventional,,,Non-Request,Yes,Male,Yes,4,19,No
195,,,audio-button-response,195,299794,0.0-12.0-11.0-0.0,yas2e2mcsw,yas2e2mcsw,non_conventional,,../data/raw/scaled_stimuli_normed/18_statement_soup.wav,,,statement,soup,18.0,nonconventional,,,,No,Male,Yes,4,19,No
196,,559.2200000010198,html-button-response,196,300619,0.0-12.0-11.0-1.0,yas2e2mcsw,yas2e2mcsw,non_conventional,,,0.0,,statement,soup,18.0,nonconventional,,,Request,Yes,Male,Yes,4,19,No
197,,,audio-button-response,197,302490,0.0-13.0-0.0-0.0,yas2e2mcsw,yas2e2mcsw,non_conventional,,../data/raw/scaled_stimuli_normed/5_request_car.wav,,,request,car,5.0,nonconventional,,,,No,Male,Yes,4,19,No
198,,276.9450000014622,html-button-response,198,303019,0.0-13.0-0.0-1.0,yas2e2mcsw,yas2e2mcsw,non_conventional,,,1.0,,request,car,5.0,nonconventional,,,Non-Request,No,Male,Yes,4,19,No
199,,,audio-button-response,199,304844,0.0-13.0-1.0-0.0,yas2e2mcsw,yas2e2mcsw,non_conventional,,../data/raw/scaled_stimuli_normed/5_statement_phone.wav,,,statement,phone,5.0,nonconventional,,,,No,Male,Yes,4,19,No
200,,303.1050000009127,html-button-response,200,305399,0.0-13.0-1.0-1.0,yas2e2mcsw,yas2e2mcsw,non_conventional,,,0.0,,statement,phone,5.0,nonconventional,,,Request,No,Male,Yes,4,19,No
201,,,audio-button-response,201,307312,0.0-13.0-2.0-0.0,yas2e2mcsw,yas2e2mcsw,non_conventional,,../data/raw/scaled_stimuli_normed/5_request_laptop.wav,,,request,laptop,5.0,nonconventional,,,,No,Male,Yes,4,19,No
202,,333.13000000087777,html-button-response,202,307897,0.0-13.0-2.0-1.0,yas2e2mcsw,yas2e2mcsw,non_conventional,,,1.0,,request,laptop,5.0,nonconventional,,,Non-Request,No,Male,Yes,4,19,No
203,,,audio-button-response,203,309512,0.0-13.0-3.0-0.0,yas2e2mcsw,yas2e2mcsw,non_conventional,,../data/raw/scaled_stimuli_normed/5_request_soup.wav,,,request,soup,5.0,nonconventional,,,,No,Male,Yes,4,19,No
204,,229.25500000023752,html-button-response,204,309992,0.0-13.0-3.0-1.0,yas2e2mcsw,yas2e2mcsw,non_conventional,,,0.0,,request,soup,5.0,nonconventional,,,Request,No,Male,Yes,4,19,No
205,,,audio-button-response,205,311452,0.0-13.0-4.0-0.0,yas2e2mcsw,yas2e2mcsw,non_conventional,,../data/raw/scaled_stimuli_normed/5_statement_soup.wav,,,statement,soup,5.0,nonconventional,,,,No,Male,Yes,4,19,No
206,,426.6200000002282,html-button-response,206,312147,0.0-13.0-4.0-1.0,yas2e2mcsw,yas2e2mcsw,non_conventional,,,0.0,,statement,soup,5.0,nonconventional,,,Request,Yes,Male,Yes,4,19,No
207,,,audio-button-response,207,314382,0.0-13.0-5.0-0.0,yas2e2mcsw,yas2e2mcsw,non_conventional,,../data/raw/scaled_stimuli_normed/5_request_back.wav,,,request,back,5.0,nonconventional,,,,No,Male,Yes,4,19,No
208,,494.7999999985914,html-button-response,208,315144,0.0-13.0-5.0-1.0,yas2e2mcsw,yas2e2mcsw,non_conventional,,,1.0,,request,back,5.0,nonconventional,,,Non-Request,No,Male,Yes,4,19,No
209,,,audio-button-response,209,317003,0.0-13.0-6.0-0.0,yas2e2mcsw,yas2e2mcsw,non_conventional,,../data/raw/scaled_stimuli_normed/5_request_phone.wav,,,request,phone,5.0,nonconventional,,,,No,Male,Yes,4,19,No
210,,260.61999999906396,html-button-response,210,317520,0.0-13.0-6.0-1.0,yas2e2mcsw,yas2e2mcsw,non_conventional,,,0.0,,request,phone,5.0,nonconventional,,,Request,Yes,Male,Yes,4,19,No
211,,,audio-button-response,211,319352,0.0-13.0-7.0-0.0,yas2e2mcsw,yas2e2mcsw,non_conventional,,../data/raw/scaled_stimuli_normed/5_statement_laptop.wav,,,statement,laptop,5.0,nonconventional,,,,No,Male,Yes,4,19,No
212,,262.9500000002445,html-button-response,212,319869,0.0-13.0-7.0-1.0,yas2e2mcsw,yas2e2mcsw,non_conventional,,,1.0,,statement,laptop,5.0,nonconventional,,,Non-Request,Yes,Male,Yes,4,19,No
213,,,audio-button-response,213,322222,0.0-13.0-8.0-0.0,yas2e2mcsw,yas2e2mcsw,non_conventional,,../data/raw/scaled_stimuli_normed/5_statement_back.wav,,,statement,back,5.0,nonconventional,,,,No,Male,Yes,4,19,No
214,,178.7299999996321,html-button-response,214,322663,0.0-13.0-8.0-1.0,yas2e2mcsw,yas2e2mcsw,non_conventional,,,0.0,,statement,back,5.0,nonconventional,,,Request,Yes,Male,Yes,4,19,No
215,,,audio-button-response,215,324902,0.0-13.0-9.0-0.0,yas2e2mcsw,yas2e2mcsw,non_conventional,,../data/raw/scaled_stimuli_normed/5_statement_car.wav,,,statement,car,5.0,nonconventional,,,,No,Male,Yes,4,19,No
216,,163.33499999932246,html-button-response,216,325317,0.0-13.0-9.0-1.0,yas2e2mcsw,yas2e2mcsw,non_conventional,,,0.0,,statement,car,5.0,nonconventional,,,Request,Yes,Male,Yes,4,19,No
217,,,audio-button-response,217,327330,0.0-13.0-10.0-0.0,yas2e2mcsw,yas2e2mcsw,non_conventional,,../data/raw/scaled_stimuli_normed/5_request_office.wav,,,request,office,5.0,nonconventional,,,,No,Male,Yes,4,19,No
218,,328.7849999996833,html-button-response,218,327914,0.0-13.0-10.0-1.0,yas2e2mcsw,yas2e2mcsw,non_conventional,,,0.0,,request,office,5.0,nonconventional,,,Request,No,Male,Yes,4,19,No
219,,,audio-button-response,219,329850,0.0-13.0-11.0-0.0,yas2e2mcsw,yas2e2mcsw,non_conventional,,../data/raw/scaled_stimuli_normed/5_statement_office.wav,,,statement,office,5.0,nonconventional,,,,No,Male,Yes,4,19,No
220,,264.26999999966944,html-button-response,220,330367,0.0-13.0-11.0-1.0,yas2e2mcsw,yas2e2mcsw,non_conventional,,,0.0,,statement,office,5.0,nonconventional,,,Request,Yes,Male,Yes,4,19,No
221,,9641.92999999976,survey-text,221,340274,0.0-14.0,yas2e2mcsw,yas2e2mcsw,non_conventional,,,,debrief,,,,,"{""Q0"":""Does tone matter?""}",,,No,Male,Yes,4,19,No
222,,7063.079999999843,survey-multi-choice,222,347593,0.0-15.0,yas2e2mcsw,yas2e2mcsw,non_conventional,,,,demographic1,,,,,"{""Q0"":""Male"",""Q1"":""Yes"",""Q2"":""4"",""Q3"":""No""}","[0,1,2,3]",,No,Male,Yes,4,19,No
223,,2261.1850000011623,survey-text,223,350110,0.0-16.0,yas2e2mcsw,yas2e2mcsw,non_conventional,,,,age,,,,,"{""Q0"":""19""}",,,No,Male,Yes,4,19,No
224,"[{""page_index"":0,""viewing_time"":3174.3099999730475}]",3175.050000019837,instructions,0,3177,0.0-0.0,j6jk395wtj,j6jk395wtj,conventional,,,,,,,,,,,,No,Female,Yes,5,21,No
225,,3681.479999970179,external-html,1,7145,0.0-1.0,j6jk395wtj,j6jk395wtj,conventional,consent.html,,,,,,,,,,,No,Female,Yes,5,21,No
226,"[{""page_index"":0,""viewing_time"":1944.7800000198185}]",1945.0249999645166,instructions,2,9347,0.0-2.0,j6jk395wtj,j6jk395wtj,conventional,,,,,,,,,,,,No,Female,Yes,5,21,No
227,,3258.8399999658577,audio-button-response,3,12862,0.0-3.0,j6jk395wtj,j6jk395wtj,conventional,,calibration/ears_audio_check.wav,2.0,test,,,,,,,,No,Female,Yes,5,21,No
228,"[{""page_index"":0,""viewing_time"":1228.350000048522},{""page_index"":1,""viewing_time"":4241.630000004079},{""page_index"":2,""viewing_time"":2923.084999958519},{""page_index"":3,""viewing_time"":1163.9000000432134},{""page_index"":4,""viewing_time"":1946.6449999599718}]",11503.775000048336,instructions,4,24622,0.0-4.0,j6jk395wtj,j6jk395wtj,conventional,,,,,,,,,,,,No,Female,Yes,5,21,No
229,,,audio-button-response,5,26314,0.0-5.0-0.0-0.0,j6jk395wtj,j6jk395wtj,conventional,,../data/raw/scaled_stimuli_normed/4_question_box.wav,,,question,box,4.0,conventional,,,,No,Female,Yes,5,21,No
230,,1010.6449999730104,html-button-response,6,27579,0.0-5.0-0.0-1.0,j6jk395wtj,j6jk395wtj,conventional,,,0.0,,question,box,4.0,conventional,,,Request,No,Female,Yes,5,21,No
231,,,audio-button-response,7,29049,0.0-5.0-1.0-0.0,j6jk395wtj,j6jk395wtj,conventional,,../data/raw/scaled_stimuli_normed/4_request_door.wav,,,request,door,4.0,conventional,,,,No,Female,Yes,5,21,No
232,,1005.2249999716878,html-button-response,8,30309,0.0-5.0-1.0-1.0,j6jk395wtj,j6jk395wtj,conventional,,,1.0,,request,door,4.0,conventional,,,Non-Request,No,Female,Yes,5,21,No
233,,,audio-button-response,9,31887,0.0-5.0-2.0-0.0,j6jk395wtj,j6jk395wtj,conventional,,../data/raw/scaled_stimuli_normed/4_request_temp.wav,,,request,temp,4.0,conventional,,,,No,Female,Yes,5,21,No
234,,1312.6750000519678,html-button-response,10,33452,0.0-5.0-2.0-1.0,j6jk395wtj,j6jk395wtj,conventional,,,1.0,,request,temp,4.0,conventional,,,Non-Request,No,Female,Yes,5,21,No
235,,,audio-button-response,11,34882,0.0-5.0-3.0-0.0,j6jk395wtj,j6jk395wtj,conventional,,../data/raw/scaled_stimuli_normed/4_question_piano.wav,,,question,piano,4.0,conventional,,,,No,Female,Yes,5,21,No
236,,963.5250000283122,html-button-response,12,36102,0.0-5.0-3.0-1.0,j6jk395wtj,j6jk395wtj,conventional,,,1.0,,question,piano,4.0,conventional,,,Non-Request,No,Female,Yes,5,21,No
237,,,audio-button-response,13,37930,0.0-5.0-4.0-0.0,j6jk395wtj,j6jk395wtj,conventional,,../data/raw/scaled_stimuli_normed/4_question_window.wav,,,question,window,4.0,conventional,,,,No,Female,Yes,5,21,No
238,,1792.8249999531547,html-button-response,14,39979,0.0-5.0-4.0-1.0,j6jk395wtj,j6jk395wtj,conventional,,,0.0,,question,window,4.0,conventional,,,Request,No,Female,Yes,5,21,No
239,,,audio-button-response,15,41518,0.0-5.0-5.0-0.0,j6jk395wtj,j6jk395wtj,conventional,,../data/raw/scaled_stimuli_normed/4_question_door.wav,,,question,door,4.0,conventional,,,,No,Female,Yes,5,21,No
240,,423.20999997900805,html-button-response,16,42192,0.0-5.0-5.0-1.0,j6jk395wtj,j6jk395wtj,conventional,,,0.0,,question,door,4.0,conventional,,,Request,Yes,Female,Yes,5,21,No
241,,,audio-button-response,17,44594,0.0-5.0-6.0-0.0,j6jk395wtj,j6jk395wtj,conventional,,../data/raw/scaled_stimuli_normed/4_question_Spanish.wav,,,question,Spanish,4.0,conventional,,,,No,Female,Yes,5,21,No
242,,1614.659999962896,html-button-response,18,46465,0.0-5.0-6.0-1.0,j6jk395wtj,j6jk395wtj,conventional,,,0.0,,question,Spanish,4.0,conventional,,,Request,No,Female,Yes,5,21,No
243,,,audio-button-response,19,48240,0.0-5.0-7.0-0.0,j6jk395wtj,j6jk395wtj,conventional,,../data/raw/scaled_stimuli_normed/4_question_temp.wav,,,question,temp,4.0,conventional,,,,No,Female,Yes,5,21,No
244,,2149.2299999808893,html-button-response,20,50641,0.0-5.0-7.0-1.0,j6jk395wtj,j6jk395wtj,conventional,,,0.0,,question,temp,4.0,conventional,,,Request,Yes,Female,Yes,5,21,No
245,,,audio-button-response,21,52216,0.0-5.0-8.0-0.0,j6jk395wtj,j6jk395wtj,conventional,,../data/raw/scaled_stimuli_normed/4_request_window.wav,,,request,window,4.0,conventional,,,,No,Female,Yes,5,21,No
246,,1036.8250000174157,html-button-response,22,53509,0.0-5.0-8.0-1.0,j6jk395wtj,j6jk395wtj,conventional,,,0.0,,request,window,4.0,conventional,,,Request,Yes,Female,Yes,5,21,No
247,,,audio-button-response,23,54840,0.0-5.0-9.0-0.0,j6jk395wtj,j6jk395wtj,conventional,,../data/raw/scaled_stimuli_normed/4_request_piano.wav,,,request,piano,4.0,conventional,,,,No,Female,Yes,5,21,No
248,,1083.6399999679998,html-button-response,24,56175,0.0-5.0-9.0-1.0,j6jk395wtj,j6jk395wtj,conventional,,,1.0,,request,piano,4.0,conventional,,,Non-Request,Yes,Female,Yes,5,21,No
249,,,audio-button-response,25,58068,0.0-5.0-10.0-0.0,j6jk395wtj,j6jk395wtj,conventional,,../data/raw/scaled_stimuli_normed/4_request_box.wav,,,request,box,4.0,conventional,,,,No,Female,Yes,5,21,No
250,,479.9549999879673,html-button-response,26,58800,0.0-5.0-10.0-1.0,j6jk395wtj,j6jk395wtj,conventional,,,0.0,,request,box,4.0,conventional,,,Request,Yes,Female,Yes,5,21,No
251,,,audio-button-response,27,60703,0.0-5.0-11.0-0.0,j6jk395wtj,j6jk395wtj,conventional,,../data/raw/scaled_stimuli_normed/4_request_Spanish.wav,,,request,Spanish,4.0,conventional,,,,No,Female,Yes,5,21,No
252,,1193.5150000499561,html-button-response,28,62153,0.0-5.0-11.0-1.0,j6jk395wtj,j6jk395wtj,conventional,,,1.0,,request,Spanish,4.0,conventional,,,Non-Request,Yes,Female,Yes,5,21,No
253,,,audio-button-response,29,63879,0.0-6.0-0.0-0.0,j6jk395wtj,j6jk395wtj,conventional,,../data/raw/scaled_stimuli_normed/5_request_temp.wav,,,request,temp,5.0,conventional,,,,No,Female,Yes,5,21,No
254,,691.7999999714084,html-button-response,30,64826,0.0-6.0-0.0-1.0,j6jk395wtj,j6jk395wtj,conventional,,,0.0,,request,temp,5.0,conventional,,,Request,No,Female,Yes,5,21,No
255,,,audio-button-response,31,67246,0.0-6.0-1.0-0.0,j6jk395wtj,j6jk395wtj,conventional,,../data/raw/scaled_stimuli_normed/5_question_Spanish.wav,,,question,Spanish,5.0,conventional,,,,No,Female,Yes,5,21,No
256,,709.6550000132993,html-button-response,32,68211,0.0-6.0-1.0-1.0,j6jk395wtj,j6jk395wtj,conventional,,,1.0,,question,Spanish,5.0,conventional,,,Non-Request,No,Female,Yes,5,21,No
257,,,audio-button-response,33,69684,0.0-6.0-2.0-0.0,j6jk395wtj,j6jk395wtj,conventional,,../data/raw/scaled_stimuli_normed/5_question_piano.wav,,,question,piano,5.0,conventional,,,,No,Female,Yes,5,21,No
258,,848.4300000127405,html-button-response,34,70788,0.0-6.0-2.0-1.0,j6jk395wtj,j6jk395wtj,conventional,,,1.0,,question,piano,5.0,conventional,,,Non-Request,No,Female,Yes,5,21,No
259,,,audio-button-response,35,72645,0.0-6.0-3.0-0.0,j6jk395wtj,j6jk395wtj,conventional,,../data/raw/scaled_stimuli_normed/5_question_window.wav,,,question,window,5.0,conventional,,,,No,Female,Yes,5,21,No
260,,1660.7150000054392,html-button-response,36,74561,0.0-6.0-3.0-1.0,j6jk395wtj,j6jk395wtj,conventional,,,0.0,,question,window,5.0,conventional,,,Request,No,Female,Yes,5,21,No
261,,,audio-button-response,37,76458,0.0-6.0-4.0-0.0,j6jk395wtj,j6jk395wtj,conventional,,../data/raw/scaled_stimuli_normed/5_request_Spanish.wav,,,request,Spanish,5.0,conventional,,,,No,Female,Yes,5,21,No
262,,1070.7800000091083,html-button-response,38,77783,0.0-6.0-4.0-1.0,j6jk395wtj,j6jk395wtj,conventional,,,1.0,,request,Spanish,5.0,conventional,,,Non-Request,Yes,Female,Yes,5,21,No
263,,,audio-button-response,39,79338,0.0-6.0-5.0-0.0,j6jk395wtj,j6jk395wtj,conventional,,../data/raw/scaled_stimuli_normed/5_request_piano.wav,,,request,piano,5.0,conventional,,,,No,Female,Yes,5,21,No
264,,2196.4900000020857,html-button-response,40,81790,0.0-6.0-5.0-1.0,j6jk395wtj,j6jk395wtj,conventional,,,1.0,,request,piano,5.0,conventional,,,Non-Request,Yes,Female,Yes,5,21,No
265,,,audio-button-response,41,83680,0.0-6.0-6.0-0.0,j6jk395wtj,j6jk395wtj,conventional,,../data/raw/scaled_stimuli_normed/5_question_box.wav,,,question,box,5.0,conventional,,,,No,Female,Yes,5,21,No
266,,525.8749999920839,html-button-response,42,84456,0.0-6.0-6.0-1.0,j6jk395wtj,j6jk395wtj,conventional,,,0.0,,question,box,5.0,conventional,,,Request,No,Female,Yes,5,21,No
267,,,audio-button-response,43,86472,0.0-6.0-7.0-0.0,j6jk395wtj,j6jk395wtj,conventional,,../data/raw/scaled_stimuli_normed/5_question_door.wav,,,question,door,5.0,conventional,,,,No,Female,Yes,5,21,No
268,,713.3600000524893,html-button-response,44,87437,0.0-6.0-7.0-1.0,j6jk395wtj,j6jk395wtj,conventional,,,0.0,,question,door,5.0,conventional,,,Request,No,Female,Yes,5,21,No
269,,,audio-button-response,45,89485,0.0-6.0-8.0-0.0,j6jk395wtj,j6jk395wtj,conventional,,../data/raw/scaled_stimuli_normed/5_question_temp.wav,,,question,temp,5.0,conventional,,,,No,Female,Yes,5,21,No
270,,1319.5150000392462,html-button-response,46,91060,0.0-6.0-8.0-1.0,j6jk395wtj,j6jk395wtj,conventional,,,1.0,,question,temp,5.0,conventional,,,Non-Request,Yes,Female,Yes,5,21,No
271,,,audio-button-response,47,92765,0.0-6.0-9.0-0.0,j6jk395wtj,j6jk395wtj,conventional,,../data/raw/scaled_stimuli_normed/5_request_box.wav,,,request,box,5.0,conventional,,,,No,Female,Yes,5,21,No
272,,936.6199999931267,html-button-response,48,93952,0.0-6.0-9.0-1.0,j6jk395wtj,j6jk395wtj,conventional,,,0.0,,request,box,5.0,conventional,,,Request,Yes,Female,Yes,5,21,No
273,,,audio-button-response,49,95528,0.0-6.0-10.0-0.0,j6jk395wtj,j6jk395wtj,conventional,,../data/raw/scaled_stimuli_normed/5_request_window.wav,,,request,window,5.0,conventional,,,,No,Female,Yes,5,21,No
274,,421.6850000084378,html-button-response,50,96206,0.0-6.0-10.0-1.0,j6jk395wtj,j6jk395wtj,conventional,,,0.0,,request,window,5.0,conventional,,,Request,Yes,Female,Yes,5,21,No
275,,,audio-button-response,51,98036,0.0-6.0-11.0-0.0,j6jk395wtj,j6jk395wtj,conventional,,../data/raw/scaled_stimuli_normed/5_request_door.wav,,,request,door,5.0,conventional,,,,No,Female,Yes,5,21,No
276,,455.3249999880791,html-button-response,52,98743,0.0-6.0-11.0-1.0,j6jk395wtj,j6jk395wtj,conventional,,,0.0,,request,door,5.0,conventional,,,Request,Yes,Female,Yes,5,21,No
277,,,audio-button-response,53,100770,0.0-7.0-0.0-0.0,j6jk395wtj,j6jk395wtj,conventional,,../data/raw/scaled_stimuli_normed/19_question_piano.wav,,,question,piano,19.0,conventional,,,,No,Female,Yes,5,21,No
278,,730.0849999883212,html-button-response,54,101756,0.0-7.0-0.0-1.0,j6jk395wtj,j6jk395wtj,conventional,,,1.0,,question,piano,19.0,conventional,,,Non-Request,No,Female,Yes,5,21,No
279,,,audio-button-response,55,103586,0.0-7.0-1.0-0.0,j6jk395wtj,j6jk395wtj,conventional,,../data/raw/scaled_stimuli_normed/19_request_piano.wav,,,request,piano,19.0,conventional,,,,No,Female,Yes,5,21,No
280,,467.56499999901285,html-button-response,56,104309,0.0-7.0-1.0-1.0,j6jk395wtj,j6jk395wtj,conventional,,,1.0,,request,piano,19.0,conventional,,,Non-Request,Yes,Female,Yes,5,21,No
281,,,audio-button-response,57,106837,0.0-7.0-2.0-0.0,j6jk395wtj,j6jk395wtj,conventional,,../data/raw/scaled_stimuli_normed/19_question_box.wav,,,question,box,19.0,conventional,,,,No,Female,Yes,5,21,No
282,,1829.169999982696,html-button-response,58,108922,0.0-7.0-2.0-1.0,j6jk395wtj,j6jk395wtj,conventional,,,1.0,,question,box,19.0,conventional,,,Non-Request,No,Female,Yes,5,21,No
283,,,audio-button-response,59,110447,0.0-7.0-3.0-0.0,j6jk395wtj,j6jk395wtj,conventional,,../data/raw/scaled_stimuli_normed/19_request_door.wav,,,request,door,19.0,conventional,,,,No,Female,Yes,5,21,No
284,,456.1699999612756,html-button-response,60,111159,0.0-7.0-3.0-1.0,j6jk395wtj,j6jk395wtj,conventional,,,0.0,,request,door,19.0,conventional,,,Request,No,Female,Yes,5,21,No
285,,,audio-button-response,61,112694,0.0-7.0-4.0-0.0,j6jk395wtj,j6jk395wtj,conventional,,../data/raw/scaled_stimuli_normed/19_request_box.wav,,,request,box,19.0,conventional,,,,No,Female,Yes,5,21,No
286,,879.2450000182725,html-button-response,62,113825,0.0-7.0-4.0-1.0,j6jk395wtj,j6jk395wtj,conventional,,,1.0,,request,box,19.0,conventional,,,Non-Request,Yes,Female,Yes,5,21,No
287,,,audio-button-response,63,115724,0.0-7.0-5.0-0.0,j6jk395wtj,j6jk395wtj,conventional,,../data/raw/scaled_stimuli_normed/19_request_temp.wav,,,request,temp,19.0,conventional,,,,No,Female,Yes,5,21,No
288,,252.3049999726936,html-button-response,64,116232,0.0-7.0-5.0-1.0,j6jk395wtj,j6jk395wtj,conventional,,,1.0,,request,temp,19.0,conventional,,,Non-Request,No,Female,Yes,5,21,No
289,,,audio-button-response,65,118029,0.0-7.0-6.0-0.0,j6jk395wtj,j6jk395wtj,conventional,,../data/raw/scaled_stimuli_normed/19_request_Spanish.wav,,,request,Spanish,19.0,conventional,,,,No,Female,Yes,5,21,No
290,,371.080000011716,html-button-response,66,118656,0.0-7.0-6.0-1.0,j6jk395wtj,j6jk395wtj,conventional,,,1.0,,request,Spanish,19.0,conventional,,,Non-Request,No,Female,Yes,5,21,No
291,,,audio-button-response,67,120850,0.0-7.0-7.0-0.0,j6jk395wtj,j6jk395wtj,conventional,,../data/raw/scaled_stimuli_normed/19_question_door.wav,,,question,door,19.0,conventional,,,,No,Female,Yes,5,21,No
292,,1022.350000042934,html-button-response,68,122128,0.0-7.0-7.0-1.0,j6jk395wtj,j6jk395wtj,conventional,,,0.0,,question,door,19.0,conventional,,,Request,Yes,Female,Yes,5,21,No
293,,,audio-button-response,69,123892,0.0-7.0-8.0-0.0,j6jk395wtj,j6jk395wtj,conventional,,../data/raw/scaled_stimuli_normed/19_request_window.wav,,,request,window,19.0,conventional,,,,No,Female,Yes,5,21,No
294,,662.7300000400282,html-button-response,70,124810,0.0-7.0-8.0-1.0,j6jk395wtj,j6jk395wtj,conventional,,,1.0,,request,window,19.0,conventional,,,Non-Request,No,Female,Yes,5,21,No
295,,,audio-button-response,71,127084,0.0-7.0-9.0-0.0,j6jk395wtj,j6jk395wtj,conventional,,../data/raw/scaled_stimuli_normed/19_question_window.wav,,,question,window,19.0,conventional,,,,No,Female,Yes,5,21,No
296,,487.29499999899423,html-button-response,72,127824,0.0-7.0-9.0-1.0,j6jk395wtj,j6jk395wtj,conventional,,,0.0,,question,window,19.0,conventional,,,Request,Yes,Female,Yes,5,21,No
297,,,audio-button-response,73,130005,0.0-7.0-10.0-0.0,j6jk395wtj,j6jk395wtj,conventional,,../data/raw/scaled_stimuli_normed/19_question_temp.wav,,,question,temp,19.0,conventional,,,,No,Female,Yes,5,21,No
298,,694.6699999971315,html-button-response,74,130950,0.0-7.0-10.0-1.0,j6jk395wtj,j6jk395wtj,conventional,,,1.0,,question,temp,19.0,conventional,,,Non-Request,Yes,Female,Yes,5,21,No
299,,,audio-button-response,75,132989,0.0-7.0-11.0-0.0,j6jk395wtj,j6jk395wtj,conventional,,../data/raw/scaled_stimuli_normed/19_question_Spanish.wav,,,question,Spanish,19.0,conventional,,,,No,Female,Yes,5,21,No
300,,638.3049999712966,html-button-response,76,133883,0.0-7.0-11.0-1.0,j6jk395wtj,j6jk395wtj,conventional,,,0.0,,question,Spanish,19.0,conventional,,,Request,Yes,Female,Yes,5,21,No
301,,,audio-button-response,77,135914,0.0-8.0-0.0-0.0,j6jk395wtj,j6jk395wtj,conventional,,../data/raw/scaled_stimuli_normed/22_request_temp.wav,,,request,temp,22.0,conventional,,,,No,Female,Yes,5,21,No
302,,1303.3749999594875,html-button-response,78,137469,0.0-8.0-0.0-1.0,j6jk395wtj,j6jk395wtj,conventional,,,0.0,,request,temp,22.0,conventional,,,Request,No,Female,Yes,5,21,No
303,,,audio-button-response,79,140669,0.0-8.0-1.0-0.0,j6jk395wtj,j6jk395wtj,conventional,,../data/raw/scaled_stimuli_normed/22_question_piano.wav,,,question,piano,22.0,conventional,,,,No,Female,Yes,5,21,No
304,,26945.984999998476,html-button-response,80,167867,0.0-8.0-1.0-1.0,j6jk395wtj,j6jk395wtj,conventional,,,0.0,,question,piano,22.0,conventional,,,Request,No,Female,Yes,5,21,No
305,,,audio-button-response,81,169816,0.0-8.0-2.0-0.0,j6jk395wtj,j6jk395wtj,conventional,,../data/raw/scaled_stimuli_normed/22_request_box.wav,,,request,box,22.0,conventional,,,,No,Female,Yes,5,21,No
306,,827.835000003688,html-button-response,82,170896,0.0-8.0-2.0-1.0,j6jk395wtj,j6jk395wtj,conventional,,,1.0,,request,box,22.0,conventional,,,Non-Request,No,Female,Yes,5,21,No
307,,,audio-button-response,83,172719,0.0-8.0-3.0-0.0,j6jk395wtj,j6jk395wtj,conventional,,../data/raw/scaled_stimuli_normed/22_question_temp.wav,,,question,temp,22.0,conventional,,,,No,Female,Yes,5,21,No
308,,615.7750000129454,html-button-response,84,173586,0.0-8.0-3.0-1.0,j6jk395wtj,j6jk395wtj,conventional,,,1.0,,question,temp,22.0,conventional,,,Non-Request,Yes,Female,Yes,5,21,No
309,,,audio-button-response,85,176318,0.0-8.0-4.0-0.0,j6jk395wtj,j6jk395wtj,conventional,,../data/raw/scaled_stimuli_normed/22_question_Spanish.wav,,,question,Spanish,22.0,conventional,,,,No,Female,Yes,5,21,No
310,,661.8299999972805,html-button-response,86,177235,0.0-8.0-4.0-1.0,j6jk395wtj,j6jk395wtj,conventional,,,1.0,,question,Spanish,22.0,conventional,,,Non-Request,No,Female,Yes,5,21,No
311,,,audio-button-response,87,179371,0.0-8.0-5.0-0.0,j6jk395wtj,j6jk395wtj,conventional,,../data/raw/scaled_stimuli_normed/22_request_window.wav,,,request,window,22.0,conventional,,,,No,Female,Yes,5,21,No
312,,367.0300000230782,html-button-response,88,179990,0.0-8.0-5.0-1.0,j6jk395wtj,j6jk395wtj,conventional,,,0.0,,request,window,22.0,conventional,,,Request,No,Female,Yes,5,21,No
313,,,audio-button-response,89,182680,0.0-8.0-6.0-0.0,j6jk395wtj,j6jk395wtj,conventional,,../data/raw/scaled_stimuli_normed/22_question_window.wav,,,question,window,22.0,conventional,,,,No,Female,Yes,5,21,No
314,,430.5299999541603,html-button-response,90,183366,0.0-8.0-6.0-1.0,j6jk395wtj,j6jk395wtj,conventional,,,1.0,,question,window,22.0,conventional,,,Non-Request,Yes,Female,Yes,5,21,No
315,,,audio-button-response,91,185896,0.0-8.0-7.0-0.0,j6jk395wtj,j6jk395wtj,conventional,,../data/raw/scaled_stimuli_normed/22_question_door.wav,,,question,door,22.0,conventional,,,,No,Female,Yes,5,21,No
316,,423.64999995334085,html-button-response,92,186573,0.0-8.0-7.0-1.0,j6jk395wtj,j6jk395wtj,conventional,,,1.0,,question,door,22.0,conventional,,,Non-Request,No,Female,Yes,5,21,No
317,,,audio-button-response,93,189170,0.0-8.0-8.0-0.0,j6jk395wtj,j6jk395wtj,conventional,,../data/raw/scaled_stimuli_normed/22_request_piano.wav,,,request,piano,22.0,conventional,,,,No,Female,Yes,5,21,No
318,,172.18499997397885,html-button-response,94,189595,0.0-8.0-8.0-1.0,j6jk395wtj,j6jk395wtj,conventional,,,1.0,,request,piano,22.0,conventional,,,Non-Request,Yes,Female,Yes,5,21,No
319,,,audio-button-response,95,192067,0.0-8.0-9.0-0.0,j6jk395wtj,j6jk395wtj,conventional,,../data/raw/scaled_stimuli_normed/22_request_Spanish.wav,,,request,Spanish,22.0,conventional,,,,No,Female,Yes,5,21,No
320,,827.5549999671057,html-button-response,96,193149,0.0-8.0-9.0-1.0,j6jk395wtj,j6jk395wtj,conventional,,,0.0,,request,Spanish,22.0,conventional,,,Request,Yes,Female,Yes,5,21,No
321,,,audio-button-response,97,195753,0.0-8.0-10.0-0.0,j6jk395wtj,j6jk395wtj,conventional,,../data/raw/scaled_stimuli_normed/22_question_box.wav,,,question,box,22.0,conventional,,,,No,Female,Yes,5,21,No
322,,413.60500000882894,html-button-response,98,196421,0.0-8.0-10.0-1.0,j6jk395wtj,j6jk395wtj,conventional,,,1.0,,question,box,22.0,conventional,,,Non-Request,Yes,Female,Yes,5,21,No
323,,,audio-button-response,99,198243,0.0-8.0-11.0-0.0,j6jk395wtj,j6jk395wtj,conventional,,../data/raw/scaled_stimuli_normed/22_request_door.wav,,,request,door,22.0,conventional,,,,No,Female,Yes,5,21,No
324,,502.8849999653176,html-button-response,100,198998,0.0-8.0-11.0-1.0,j6jk395wtj,j6jk395wtj,conventional,,,0.0,,request,door,22.0,conventional,,,Request,Yes,Female,Yes,5,21,No
325,,,audio-button-response,101,201030,0.0-9.0-0.0-0.0,j6jk395wtj,j6jk395wtj,conventional,,../data/raw/scaled_stimuli_normed/20_question_piano.wav,,,question,piano,20.0,conventional,,,,No,Female,Yes,5,21,No
326,,470.20500001963234,html-button-response,102,201752,0.0-9.0-0.0-1.0,j6jk395wtj,j6jk395wtj,conventional,,,1.0,,question,piano,20.0,conventional,,,Non-Request,No,Female,Yes,5,21,No
327,,,audio-button-response,103,203782,0.0-9.0-1.0-0.0,j6jk395wtj,j6jk395wtj,conventional,,../data/raw/scaled_stimuli_normed/20_question_window.wav,,,question,window,20.0,conventional,,,,No,Female,Yes,5,21,No
328,,517.4400000250898,html-button-response,104,204555,0.0-9.0-1.0-1.0,j6jk395wtj,j6jk395wtj,conventional,,,0.0,,question,window,20.0,conventional,,,Request,No,Female,Yes,5,21,No
329,,,audio-button-response,105,206452,0.0-9.0-2.0-0.0,j6jk395wtj,j6jk395wtj,conventional,,../data/raw/scaled_stimuli_normed/20_request_temp.wav,,,request,temp,20.0,conventional,,,,No,Female,Yes,5,21,No
330,,469.77499994682154,html-button-response,106,207173,0.0-9.0-2.0-1.0,j6jk395wtj,j6jk395wtj,conventional,,,1.0,,request,temp,20.0,conventional,,,Non-Request,No,Female,Yes,5,21,No
331,,,audio-button-response,107,209035,0.0-9.0-3.0-0.0,j6jk395wtj,j6jk395wtj,conventional,,../data/raw/scaled_stimuli_normed/20_request_piano.wav,,,request,piano,20.0,conventional,,,,No,Female,Yes,5,21,No
332,,2331.984999997076,html-button-response,108,211623,0.0-9.0-3.0-1.0,j6jk395wtj,j6jk395wtj,conventional,,,1.0,,request,piano,20.0,conventional,,,Non-Request,Yes,Female,Yes,5,21,No
333,,,audio-button-response,109,213464,0.0-9.0-4.0-0.0,j6jk395wtj,j6jk395wtj,conventional,,../data/raw/scaled_stimuli_normed/20_request_window.wav,,,request,window,20.0,conventional,,,,No,Female,Yes,5,21,No
334,,632.9449999611825,html-button-response,110,214353,0.0-9.0-4.0-1.0,j6jk395wtj,j6jk395wtj,conventional,,,0.0,,request,window,20.0,conventional,,,Request,Yes,Female,Yes,5,21,No
335,,,audio-button-response,111,216593,0.0-9.0-5.0-0.0,j6jk395wtj,j6jk395wtj,conventional,,../data/raw/scaled_stimuli_normed/20_request_Spanish.wav,,,request,Spanish,20.0,conventional,,,,No,Female,Yes,5,21,No
336,,452.1650000242517,html-button-response,112,217301,0.0-9.0-5.0-1.0,j6jk395wtj,j6jk395wtj,conventional,,,1.0,,request,Spanish,20.0,conventional,,,Non-Request,No,Female,Yes,5,21,No
337,,,audio-button-response,113,219513,0.0-9.0-6.0-0.0,j6jk395wtj,j6jk395wtj,conventional,,../data/raw/scaled_stimuli_normed/20_request_door.wav,,,request,door,20.0,conventional,,,,No,Female,Yes,5,21,No
338,,870.8849999820814,html-button-response,114,220638,0.0-9.0-6.0-1.0,j6jk395wtj,j6jk395wtj,conventional,,,0.0,,request,door,20.0,conventional,,,Request,No,Female,Yes,5,21,No
339,,,audio-button-response,115,222596,0.0-9.0-7.0-0.0,j6jk395wtj,j6jk395wtj,conventional,,../data/raw/scaled_stimuli_normed/20_request_box.wav,,,request,box,20.0,conventional,,,,No,Female,Yes,5,21,No
340,,422.97000001417473,html-button-response,116,223271,0.0-9.0-7.0-1.0,j6jk395wtj,j6jk395wtj,conventional,,,0.0,,request,box,20.0,conventional,,,Request,No,Female,Yes,5,21,No
341,,,audio-button-response,117,225318,0.0-9.0-8.0-0.0,j6jk395wtj,j6jk395wtj,conventional,,../data/raw/scaled_stimuli_normed/20_question_door.wav,,,question,door,20.0,conventional,,,,No,Female,Yes,5,21,No
342,,309.8549999995157,html-button-response,118,225880,0.0-9.0-8.0-1.0,j6jk395wtj,j6jk395wtj,conventional,,,0.0,,question,door,20.0,conventional,,,Request,Yes,Female,Yes,5,21,No
343,,,audio-button-response,119,228326,0.0-9.0-9.0-0.0,j6jk395wtj,j6jk395wtj,conventional,,../data/raw/scaled_stimuli_normed/20_question_box.wav,,,question,box,20.0,conventional,,,,No,Female,Yes,5,21,No
344,,526.5549999894574,html-button-response,120,229103,0.0-9.0-9.0-1.0,j6jk395wtj,j6jk395wtj,conventional,,,1.0,,question,box,20.0,conventional,,,Non-Request,Yes,Female,Yes,5,21,No
345,,,audio-button-response,121,231071,0.0-9.0-10.0-0.0,j6jk395wtj,j6jk395wtj,conventional,,../data/raw/scaled_stimuli_normed/20_question_temp.wav,,,question,temp,20.0,conventional,,,,No,Female,Yes,5,21,No
346,,428.7500000209548,html-button-response,122,231752,0.0-9.0-10.0-1.0,j6jk395wtj,j6jk395wtj,conventional,,,0.0,,question,temp,20.0,conventional,,,Request,Yes,Female,Yes,5,21,No
347,,,audio-button-response,123,233991,0.0-9.0-11.0-0.0,j6jk395wtj,j6jk395wtj,conventional,,../data/raw/scaled_stimuli_normed/20_question_Spanish.wav,,,question,Spanish,20.0,conventional,,,,No,Female,Yes,5,21,No
348,,434.0000000083819,html-button-response,124,234677,0.0-9.0-11.0-1.0,j6jk395wtj,j6jk395wtj,conventional,,,0.0,,question,Spanish,20.0,conventional,,,Request,Yes,Female,Yes,5,21,No
349,,,audio-button-response,125,236563,0.0-10.0-0.0-0.0,j6jk395wtj,j6jk395wtj,conventional,,../data/raw/scaled_stimuli_normed/3_request_temp.wav,,,request,temp,3.0,conventional,,,,No,Female,Yes,5,21,No
350,,978.5750000155533,html-button-response,126,237795,0.0-10.0-0.0-1.0,j6jk395wtj,j6jk395wtj,conventional,,,0.0,,request,temp,3.0,conventional,,,Request,No,Female,Yes,5,21,No
351,,,audio-button-response,127,239349,0.0-10.0-1.0-0.0,j6jk395wtj,j6jk395wtj,conventional,,../data/raw/scaled_stimuli_normed/3_request_door.wav,,,request,door,3.0,conventional,,,,No,Female,Yes,5,21,No
352,,3989.0850000083447,html-button-response,128,243594,0.0-10.0-1.0-1.0,j6jk395wtj,j6jk395wtj,conventional,,,0.0,,request,door,3.0,conventional,,,Request,No,Female,Yes,5,21,No
353,,,audio-button-response,129,245393,0.0-10.0-2.0-0.0,j6jk395wtj,j6jk395wtj,conventional,,../data/raw/scaled_stimuli_normed/3_question_window.wav,,,question,window,3.0,conventional,,,,No,Female,Yes,5,21,No
354,,429.9800000153482,html-button-response,130,246074,0.0-10.0-2.0-1.0,j6jk395wtj,j6jk395wtj,conventional,,,0.0,,question,window,3.0,conventional,,,Request,No,Female,Yes,5,21,No
355,,,audio-button-response,131,247755,0.0-10.0-3.0-0.0,j6jk395wtj,j6jk395wtj,conventional,,../data/raw/scaled_stimuli_normed/3_question_door.wav,,,question,door,3.0,conventional,,,,No,Female,Yes,5,21,No
356,,467.17999997781584,html-button-response,132,248473,0.0-10.0-3.0-1.0,j6jk395wtj,j6jk395wtj,conventional,,,1.0,,question,door,3.0,conventional,,,Non-Request,Yes,Female,Yes,5,21,No
357,,,audio-button-response,133,249892,0.0-10.0-4.0-0.0,j6jk395wtj,j6jk395wtj,conventional,,../data/raw/scaled_stimuli_normed/3_request_piano.wav,,,request,piano,3.0,conventional,,,,No,Female,Yes,5,21,No
358,,406.01500001503166,html-button-response,134,250549,0.0-10.0-4.0-1.0,j6jk395wtj,j6jk395wtj,conventional,,,1.0,,request,piano,3.0,conventional,,,Non-Request,No,Female,Yes,5,21,No
359,,,audio-button-response,135,252399,0.0-10.0-5.0-0.0,j6jk395wtj,j6jk395wtj,conventional,,../data/raw/scaled_stimuli_normed/3_request_box.wav,,,request,box,3.0,conventional,,,,No,Female,Yes,5,21,No
360,,602.1750000072642,html-button-response,136,253255,0.0-10.0-5.0-1.0,j6jk395wtj,j6jk395wtj,conventional,,,0.0,,request,box,3.0,conventional,,,Request,No,Female,Yes,5,21,No
361,,,audio-button-response,137,256045,0.0-10.0-6.0-0.0,j6jk395wtj,j6jk395wtj,conventional,,../data/raw/scaled_stimuli_normed/3_question_Spanish.wav,,,question,Spanish,3.0,conventional,,,,No,Female,Yes,5,21,No
362,,1101.3949999469332,html-button-response,138,257398,0.0-10.0-6.0-1.0,j6jk395wtj,j6jk395wtj,conventional,,,0.0,,question,Spanish,3.0,conventional,,,Request,No,Female,Yes,5,21,No
363,,,audio-button-response,139,259075,0.0-10.0-7.0-0.0,j6jk395wtj,j6jk395wtj,conventional,,../data/raw/scaled_stimuli_normed/3_question_piano.wav,,,question,piano,3.0,conventional,,,,No,Female,Yes,5,21,No
364,,672.9449999984354,html-button-response,140,259999,0.0-10.0-7.0-1.0,j6jk395wtj,j6jk395wtj,conventional,,,1.0,,question,piano,3.0,conventional,,,Non-Request,Yes,Female,Yes,5,21,No
365,,,audio-button-response,141,261786,0.0-10.0-8.0-0.0,j6jk395wtj,j6jk395wtj,conventional,,../data/raw/scaled_stimuli_normed/3_question_temp.wav,,,question,temp,3.0,conventional,,,,No,Female,Yes,5,21,No
366,,674.1349999792874,html-button-response,142,262712,0.0-10.0-8.0-1.0,j6jk395wtj,j6jk395wtj,conventional,,,1.0,,question,temp,3.0,conventional,,,Non-Request,Yes,Female,Yes,5,21,No
367,,,audio-button-response,143,264514,0.0-10.0-9.0-0.0,j6jk395wtj,j6jk395wtj,conventional,,../data/raw/scaled_stimuli_normed/3_question_box.wav,,,question,box,3.0,conventional,,,,No,Female,Yes,5,21,No
368,,1203.1999999890104,html-button-response,144,265969,0.0-10.0-9.0-1.0,j6jk395wtj,j6jk395wtj,conventional,,,0.0,,question,box,3.0,conventional,,,Request,Yes,Female,Yes,5,21,No
369,,,audio-button-response,145,267812,0.0-10.0-10.0-0.0,j6jk395wtj,j6jk395wtj,conventional,,../data/raw/scaled_stimuli_normed/3_request_Spanish.wav,,,request,Spanish,3.0,conventional,,,,No,Female,Yes,5,21,No
370,,1544.1049999790264,html-button-response,146,269612,0.0-10.0-10.0-1.0,j6jk395wtj,j6jk395wtj,conventional,,,1.0,,request,Spanish,3.0,conventional,,,Non-Request,Yes,Female,Yes,5,21,No
371,,,audio-button-response,147,271405,0.0-10.0-11.0-0.0,j6jk395wtj,j6jk395wtj,conventional,,../data/raw/scaled_stimuli_normed/3_request_window.wav,,,request,window,3.0,conventional,,,,No,Female,Yes,5,21,No
372,,1512.3399999574758,html-button-response,148,273173,0.0-10.0-11.0-1.0,j6jk395wtj,j6jk395wtj,conventional,,,0.0,,request,window,3.0,conventional,,,Request,Yes,Female,Yes,5,21,No
373,,,audio-button-response,149,274876,0.0-11.0-0.0-0.0,j6jk395wtj,j6jk395wtj,conventional,,../data/raw/scaled_stimuli_normed/25_request_Spanish.wav,,,request,Spanish,25.0,conventional,,,,No,Female,Yes,5,21,No
374,,2020.0850000255741,html-button-response,150,277148,0.0-11.0-0.0-1.0,j6jk395wtj,j6jk395wtj,conventional,,,1.0,,request,Spanish,25.0,conventional,,,Non-Request,No,Female,Yes,5,21,No
375,,,audio-button-response,151,278505,0.0-11.0-1.0-0.0,j6jk395wtj,j6jk395wtj,conventional,,../data/raw/scaled_stimuli_normed/25_request_piano.wav,,,request,piano,25.0,conventional,,,,No,Female,Yes,5,21,No
376,,842.6499999477527,html-button-response,152,279603,0.0-11.0-1.0-1.0,j6jk395wtj,j6jk395wtj,conventional,,,1.0,,request,piano,25.0,conventional,,,Non-Request,No,Female,Yes,5,21,No
377,,,audio-button-response,153,281413,0.0-11.0-2.0-0.0,j6jk395wtj,j6jk395wtj,conventional,,../data/raw/scaled_stimuli_normed/25_request_window.wav,,,request,window,25.0,conventional,,,,No,Female,Yes,5,21,No
378,,708.600000012666,html-button-response,154,282373,0.0-11.0-2.0-1.0,j6jk395wtj,j6jk395wtj,conventional,,,0.0,,request,window,25.0,conventional,,,Request,No,Female,Yes,5,21,No
379,,,audio-button-response,155,284374,0.0-11.0-3.0-0.0,j6jk395wtj,j6jk395wtj,conventional,,../data/raw/scaled_stimuli_normed/25_question_Spanish.wav,,,question,Spanish,25.0,conventional,,,,No,Female,Yes,5,21,No
380,,1588.690000004135,html-button-response,156,286218,0.0-11.0-3.0-1.0,j6jk395wtj,j6jk395wtj,conventional,,,1.0,,question,Spanish,25.0,conventional,,,Non-Request,Yes,Female,Yes,5,21,No
381,,,audio-button-response,157,287793,0.0-11.0-4.0-0.0,j6jk395wtj,j6jk395wtj,conventional,,../data/raw/scaled_stimuli_normed/25_request_door.wav,,,request,door,25.0,conventional,,,,No,Female,Yes,5,21,No
382,,1396.8999999924563,html-button-response,158,289440,0.0-11.0-4.0-1.0,j6jk395wtj,j6jk395wtj,conventional,,,0.0,,request,door,25.0,conventional,,,Request,No,Female,Yes,5,21,No
383,,,audio-button-response,159,291026,0.0-11.0-5.0-0.0,j6jk395wtj,j6jk395wtj,conventional,,../data/raw/scaled_stimuli_normed/25_question_temp.wav,,,question,temp,25.0,conventional,,,,No,Female,Yes,5,21,No
384,,1021.7549999943004,html-button-response,160,292300,0.0-11.0-5.0-1.0,j6jk395wtj,j6jk395wtj,conventional,,,0.0,,question,temp,25.0,conventional,,,Request,No,Female,Yes,5,21,No
385,,,audio-button-response,161,294405,0.0-11.0-6.0-0.0,j6jk395wtj,j6jk395wtj,conventional,,../data/raw/scaled_stimuli_normed/25_question_piano.wav,,,question,piano,25.0,conventional,,,,No,Female,Yes,5,21,No
386,,1040.0549999903888,html-button-response,162,295700,0.0-11.0-6.0-1.0,j6jk395wtj,j6jk395wtj,conventional,,,0.0,,question,piano,25.0,conventional,,,Request,Yes,Female,Yes,5,21,No
387,,,audio-button-response,163,298265,0.0-11.0-7.0-0.0,j6jk395wtj,j6jk395wtj,conventional,,../data/raw/scaled_stimuli_normed/25_question_window.wav,,,question,window,25.0,conventional,,,,No,Female,Yes,5,21,No
388,,493.91499999910593,html-button-response,164,299012,0.0-11.0-7.0-1.0,j6jk395wtj,j6jk395wtj,conventional,,,1.0,,question,window,25.0,conventional,,,Non-Request,Yes,Female,Yes,5,21,No
389,,,audio-button-response,165,300820,0.0-11.0-8.0-0.0,j6jk395wtj,j6jk395wtj,conventional,,../data/raw/scaled_stimuli_normed/25_question_door.wav,,,question,door,25.0,conventional,,,,No,Female,Yes,5,21,No
390,,1393.9400000381283,html-button-response,166,302469,0.0-11.0-8.0-1.0,j6jk395wtj,j6jk395wtj,conventional,,,0.0,,question,door,25.0,conventional,,,Request,Yes,Female,Yes,5,21,No
391,,,audio-button-response,167,304657,0.0-11.0-9.0-0.0,j6jk395wtj,j6jk395wtj,conventional,,../data/raw/scaled_stimuli_normed/25_question_box.wav,,,question,box,25.0,conventional,,,,No,Female,Yes,5,21,No
392,,460.23000002605835,html-button-response,168,305369,0.0-11.0-9.0-1.0,j6jk395wtj,j6jk395wtj,conventional,,,1.0,,question,box,25.0,conventional,,,Non-Request,No,Female,Yes,5,21,No
393,,,audio-button-response,169,307246,0.0-11.0-10.0-0.0,j6jk395wtj,j6jk395wtj,conventional,,../data/raw/scaled_stimuli_normed/25_request_box.wav,,,request,box,25.0,conventional,,,,No,Female,Yes,5,21,No
394,,492.5099999527447,html-button-response,170,307994,0.0-11.0-10.0-1.0,j6jk395wtj,j6jk395wtj,conventional,,,0.0,,request,box,25.0,conventional,,,Request,Yes,Female,Yes,5,21,No
395,,,audio-button-response,171,309881,0.0-11.0-11.0-0.0,j6jk395wtj,j6jk395wtj,conventional,,../data/raw/scaled_stimuli_normed/25_request_temp.wav,,,request,temp,25.0,conventional,,,,No,Female,Yes,5,21,No
396,,424.99000002862886,html-button-response,172,310562,0.0-11.0-11.0-1.0,j6jk395wtj,j6jk395wtj,conventional,,,0.0,,request,temp,25.0,conventional,,,Request,Yes,Female,Yes,5,21,No
397,,,audio-button-response,173,312499,0.0-12.0-0.0-0.0,j6jk395wtj,j6jk395wtj,conventional,,../data/raw/scaled_stimuli_normed/9_request_window.wav,,,request,window,9.0,conventional,,,,No,Female,Yes,5,21,No
398,,830.9449999942444,html-button-response,174,313583,0.0-12.0-0.0-1.0,j6jk395wtj,j6jk395wtj,conventional,,,0.0,,request,window,9.0,conventional,,,Request,No,Female,Yes,5,21,No
399,,,audio-button-response,175,315390,0.0-12.0-1.0-0.0,j6jk395wtj,j6jk395wtj,conventional,,../data/raw/scaled_stimuli_normed/9_request_door.wav,,,request,door,9.0,conventional,,,,No,Female,Yes,5,21,No
400,,330.59500000672415,html-button-response,176,315974,0.0-12.0-1.0-1.0,j6jk395wtj,j6jk395wtj,conventional,,,0.0,,request,door,9.0,conventional,,,Request,No,Female,Yes,5,21,No
401,,,audio-button-response,177,317724,0.0-12.0-2.0-0.0,j6jk395wtj,j6jk395wtj,conventional,,../data/raw/scaled_stimuli_normed/9_request_piano.wav,,,request,piano,9.0,conventional,,,,No,Female,Yes,5,21,No
402,,1080.0150000141002,html-button-response,178,319060,0.0-12.0-2.0-1.0,j6jk395wtj,j6jk395wtj,conventional,,,1.0,,request,piano,9.0,conventional,,,Non-Request,No,Female,Yes,5,21,No
403,,,audio-button-response,179,320905,0.0-12.0-3.0-0.0,j6jk395wtj,j6jk395wtj,conventional,,../data/raw/scaled_stimuli_normed/9_question_door.wav,,,question,door,9.0,conventional,,,,No,Female,Yes,5,21,No
404,,442.8099999786354,html-button-response,180,321604,0.0-12.0-3.0-1.0,j6jk395wtj,j6jk395wtj,conventional,,,1.0,,question,door,9.0,conventional,,,Non-Request,Yes,Female,Yes,5,21,No
405,,,audio-button-response,181,323494,0.0-12.0-4.0-0.0,j6jk395wtj,j6jk395wtj,conventional,,../data/raw/scaled_stimuli_normed/9_request_box.wav,,,request,box,9.0,conventional,,,,No,Female,Yes,5,21,No
406,,284.95499998098234,html-button-response,182,324035,0.0-12.0-4.0-1.0,j6jk395wtj,j6jk395wtj,conventional,,,1.0,,request,box,9.0,conventional,,,Non-Request,No,Female,Yes,5,21,No
407,,,audio-button-response,183,325950,0.0-12.0-5.0-0.0,j6jk395wtj,j6jk395wtj,conventional,,../data/raw/scaled_stimuli_normed/9_question_box.wav,,,question,box,9.0,conventional,,,,No,Female,Yes,5,21,No
408,,1787.0649999822492,html-button-response,184,327993,0.0-12.0-5.0-1.0,j6jk395wtj,j6jk395wtj,conventional,,,0.0,,question,box,9.0,conventional,,,Request,Yes,Female,Yes,5,21,No
409,,,audio-button-response,185,330083,0.0-12.0-6.0-0.0,j6jk395wtj,j6jk395wtj,conventional,,../data/raw/scaled_stimuli_normed/9_request_temp.wav,,,request,temp,9.0,conventional,,,,No,Female,Yes,5,21,No
410,,1632.999999972526,html-button-response,186,331967,0.0-12.0-6.0-1.0,j6jk395wtj,j6jk395wtj,conventional,,,1.0,,request,temp,9.0,conventional,,,Non-Request,No,Female,Yes,5,21,No
411,,,audio-button-response,187,333601,0.0-12.0-7.0-0.0,j6jk395wtj,j6jk395wtj,conventional,,../data/raw/scaled_stimuli_normed/9_question_piano.wav,,,question,piano,9.0,conventional,,,,No,Female,Yes,5,21,No
412,,440.46999997226516,html-button-response,188,334293,0.0-12.0-7.0-1.0,j6jk395wtj,j6jk395wtj,conventional,,,1.0,,question,piano,9.0,conventional,,,Non-Request,Yes,Female,Yes,5,21,No
413,,,audio-button-response,189,336294,0.0-12.0-8.0-0.0,j6jk395wtj,j6jk395wtj,conventional,,../data/raw/scaled_stimuli_normed/9_request_Spanish.wav,,,request,Spanish,9.0,conventional,,,,No,Female,Yes,5,21,No
414,,222.75999997509643,html-button-response,190,336772,0.0-12.0-8.0-1.0,j6jk395wtj,j6jk395wtj,conventional,,,1.0,,request,Spanish,9.0,conventional,,,Non-Request,No,Female,Yes,5,21,No
415,,,audio-button-response,191,338634,0.0-12.0-9.0-0.0,j6jk395wtj,j6jk395wtj,conventional,,../data/raw/scaled_stimuli_normed/9_question_Spanish.wav,,,question,Spanish,9.0,conventional,,,,No,Female,Yes,5,21,No
416,,863.6449999758042,html-button-response,192,339753,0.0-12.0-9.0-1.0,j6jk395wtj,j6jk395wtj,conventional,,,1.0,,question,Spanish,9.0,conventional,,,Non-Request,Yes,Female,Yes,5,21,No
417,,,audio-button-response,193,341850,0.0-12.0-10.0-0.0,j6jk395wtj,j6jk395wtj,conventional,,../data/raw/scaled_stimuli_normed/9_question_temp.wav,,,question,temp,9.0,conventional,,,,No,Female,Yes,5,21,No
418,,445.8350000204518,html-button-response,194,342548,0.0-12.0-10.0-1.0,j6jk395wtj,j6jk395wtj,conventional,,,0.0,,question,temp,9.0,conventional,,,Request,Yes,Female,Yes,5,21,No
419,,,audio-button-response,195,344526,0.0-12.0-11.0-0.0,j6jk395wtj,j6jk395wtj,conventional,,../data/raw/scaled_stimuli_normed/9_question_window.wav,,,question,window,9.0,conventional,,,,No,Female,Yes,5,21,No
420,,205.1000000210479,html-button-response,196,344987,0.0-12.0-11.0-1.0,j6jk395wtj,j6jk395wtj,conventional,,,0.0,,question,window,9.0,conventional,,,Request,Yes,Female,Yes,5,21,No
421,,,audio-button-response,197,347527,0.0-13.0-0.0-0.0,j6jk395wtj,j6jk395wtj,conventional,,../data/raw/scaled_stimuli_normed/2_question_Spanish.wav,,,question,Spanish,2.0,conventional,,,,No,Female,Yes,5,21,No
422,,1100.849999987986,html-button-response,198,348880,0.0-13.0-0.0-1.0,j6jk395wtj,j6jk395wtj,conventional,,,1.0,,question,Spanish,2.0,conventional,,,Non-Request,No,Female,Yes,5,21,No
423,,,audio-button-response,199,351196,0.0-13.0-1.0-0.0,j6jk395wtj,j6jk395wtj,conventional,,../data/raw/scaled_stimuli_normed/2_question_box.wav,,,question,box,2.0,conventional,,,,No,Female,Yes,5,21,No
424,,719.3899999838322,html-button-response,200,352171,0.0-13.0-1.0-1.0,j6jk395wtj,j6jk395wtj,conventional,,,1.0,,question,box,2.0,conventional,,,Non-Request,No,Female,Yes,5,21,No
425,,,audio-button-response,201,353919,0.0-13.0-2.0-0.0,j6jk395wtj,j6jk395wtj,conventional,,../data/raw/scaled_stimuli_normed/2_question_piano.wav,,,question,piano,2.0,conventional,,,,No,Female,Yes,5,21,No
426,,478.7599999690429,html-button-response,202,354653,0.0-13.0-2.0-1.0,j6jk395wtj,j6jk395wtj,conventional,,,1.0,,question,piano,2.0,conventional,,,Non-Request,No,Female,Yes,5,21,No
427,,,audio-button-response,203,356635,0.0-13.0-3.0-0.0,j6jk395wtj,j6jk395wtj,conventional,,../data/raw/scaled_stimuli_normed/2_request_door.wav,,,request,door,2.0,conventional,,,,No,Female,Yes,5,21,No
428,,641.6600000229664,html-button-response,204,357528,0.0-13.0-3.0-1.0,j6jk395wtj,j6jk395wtj,conventional,,,0.0,,request,door,2.0,conventional,,,Request,No,Female,Yes,5,21,No
429,,,audio-button-response,205,359184,0.0-13.0-4.0-0.0,j6jk395wtj,j6jk395wtj,conventional,,../data/raw/scaled_stimuli_normed/2_question_window.wav,,,question,window,2.0,conventional,,,,No,Female,Yes,5,21,No
430,,438.83999995887285,html-button-response,206,359879,0.0-13.0-4.0-1.0,j6jk395wtj,j6jk395wtj,conventional,,,0.0,,question,window,2.0,conventional,,,Request,No,Female,Yes,5,21,No
431,,,audio-button-response,207,362150,0.0-13.0-5.0-0.0,j6jk395wtj,j6jk395wtj,conventional,,../data/raw/scaled_stimuli_normed/2_request_Spanish.wav,,,request,Spanish,2.0,conventional,,,,No,Female,Yes,5,21,No
432,,517.470000020694,html-button-response,208,362924,0.0-13.0-5.0-1.0,j6jk395wtj,j6jk395wtj,conventional,,,1.0,,request,Spanish,2.0,conventional,,,Non-Request,Yes,Female,Yes,5,21,No
433,,,audio-button-response,209,364867,0.0-13.0-6.0-0.0,j6jk395wtj,j6jk395wtj,conventional,,../data/raw/scaled_stimuli_normed/2_request_piano.wav,,,request,piano,2.0,conventional,,,,No,Female,Yes,5,21,No
434,,219.37499998603016,html-button-response,210,365339,0.0-13.0-6.0-1.0,j6jk395wtj,j6jk395wtj,conventional,,,1.0,,request,piano,2.0,conventional,,,Non-Request,Yes,Female,Yes,5,21,No
435,,,audio-button-response,211,367079,0.0-13.0-7.0-0.0,j6jk395wtj,j6jk395wtj,conventional,,../data/raw/scaled_stimuli_normed/2_request_temp.wav,,,request,temp,2.0,conventional,,,,No,Female,Yes,5,21,No
436,,673.8000000477767,html-button-response,212,368003,0.0-13.0-7.0-1.0,j6jk395wtj,j6jk395wtj,conventional,,,1.0,,request,temp,2.0,conventional,,,Non-Request,No,Female,Yes,5,21,No
437,,,audio-button-response,213,369848,0.0-13.0-8.0-0.0,j6jk395wtj,j6jk395wtj,conventional,,../data/raw/scaled_stimuli_normed/2_question_temp.wav,,,question,temp,2.0,conventional,,,,No,Female,Yes,5,21,No
438,,457.4099999736063,html-button-response,214,370557,0.0-13.0-8.0-1.0,j6jk395wtj,j6jk395wtj,conventional,,,0.0,,question,temp,2.0,conventional,,,Request,Yes,Female,Yes,5,21,No
439,,,audio-button-response,215,372216,0.0-13.0-9.0-0.0,j6jk395wtj,j6jk395wtj,conventional,,../data/raw/scaled_stimuli_normed/2_request_window.wav,,,request,window,2.0,conventional,,,,No,Female,Yes,5,21,No
440,,330.2600000170059,html-button-response,216,372802,0.0-13.0-9.0-1.0,j6jk395wtj,j6jk395wtj,conventional,,,0.0,,request,window,2.0,conventional,,,Request,Yes,Female,Yes,5,21,No
441,,,audio-button-response,217,374451,0.0-13.0-10.0-0.0,j6jk395wtj,j6jk395wtj,conventional,,../data/raw/scaled_stimuli_normed/2_question_door.wav,,,question,door,2.0,conventional,,,,No,Female,Yes,5,21,No
442,,477.76999999769026,html-button-response,218,375185,0.0-13.0-10.0-1.0,j6jk395wtj,j6jk395wtj,conventional,,,1.0,,question,door,2.0,conventional,,,Non-Request,Yes,Female,Yes,5,21,No
443,,,audio-button-response,219,377156,0.0-13.0-11.0-0.0,j6jk395wtj,j6jk395wtj,conventional,,../data/raw/scaled_stimuli_normed/2_request_box.wav,,,request,box,2.0,conventional,,,,No,Female,Yes,5,21,No
444,,737.2949999989943,html-button-response,220,378149,0.0-13.0-11.0-1.0,j6jk395wtj,j6jk395wtj,conventional,,,0.0,,request,box,2.0,conventional,,,Request,Yes,Female,Yes,5,21,No
445,,25094.854999973908,survey-text,221,403502,0.0-14.0,j6jk395wtj,j6jk395wtj,conventional,,,,debrief,,,,,"{""Q0"":""How different inflections of saying a question lead to different interpretations of whether or not it is a request""}",,,No,Female,Yes,5,21,No
446,,13398.6450000084,survey-multi-choice,222,417153,0.0-15.0,j6jk395wtj,j6jk395wtj,conventional,,,,demographic1,,,,,"{""Q0"":""Female"",""Q1"":""Yes"",""Q2"":""5"",""Q3"":""No""}","[0,1,2,3]",,No,Female,Yes,5,21,No
447,,2165.8750000060536,survey-text,223,419575,0.0-16.0,j6jk395wtj,j6jk395wtj,conventional,,,,age,,,,,"{""Q0"":""21""}",,,No,Female,Yes,5,21,No
448,"[{""page_index"":0,""viewing_time"":16468.594999983907}]",16471.275000018068,instructions,0,16485,0.0-0.0,6j8b3x49wv,6j8b3x49wv,conventional,,,,,,,,,,,,No,Female,Yes,4,20,No
449,,6023.019999964163,external-html,1,23427,0.0-1.0,6j8b3x49wv,6j8b3x49wv,conventional,consent.html,,,,,,,,,,,No,Female,Yes,4,20,No
450,"[{""page_index"":0,""viewing_time"":2023.9749999018386}]",2024.3849999969825,instructions,2,25707,0.0-2.0,6j8b3x49wv,6j8b3x49wv,conventional,,,,,,,,,,,,No,Female,Yes,4,20,No
451,,4688.175000017509,audio-button-response,3,30671,0.0-3.0,6j8b3x49wv,6j8b3x49wv,conventional,,calibration/ears_audio_check.wav,2.0,test,,,,,,,,No,Female,Yes,4,20,No
452,"[{""page_index"":0,""viewing_time"":995.1100000180304},{""page_index"":1,""viewing_time"":6835.510000004433},{""page_index"":2,""viewing_time"":3097.569999983534},{""page_index"":1,""viewing_time"":1718.1799999671057},{""page_index"":2,""viewing_time"":2327.754999976605},{""page_index"":3,""viewing_time"":3943.375000031665},{""page_index"":4,""viewing_time"":1379.5999999856576}]",20297.57499997504,instructions,4,51225,0.0-4.0,6j8b3x49wv,6j8b3x49wv,conventional,,,,,,,,,,,,No,Female,Yes,4,20,No
453,,,audio-button-response,5,53373,0.0-5.0-0.0-0.0,6j8b3x49wv,6j8b3x49wv,conventional,,../data/raw/scaled_stimuli_normed/17_question_Spanish.wav,,,question,Spanish,17.0,conventional,,,,No,Female,Yes,4,20,No
454,,5615.2299999957895,html-button-response,6,59245,0.0-5.0-0.0-1.0,6j8b3x49wv,6j8b3x49wv,conventional,,,0.0,,question,Spanish,17.0,conventional,,,Request,No,Female,Yes,4,20,No
455,,,audio-button-response,7,61262,0.0-5.0-1.0-0.0,6j8b3x49wv,6j8b3x49wv,conventional,,../data/raw/scaled_stimuli_normed/17_request_Spanish.wav,,,request,Spanish,17.0,conventional,,,,No,Female,Yes,4,20,No
456,,1977.835000026971,html-button-response,8,63502,0.0-5.0-1.0-1.0,6j8b3x49wv,6j8b3x49wv,conventional,,,0.0,,request,Spanish,17.0,conventional,,,Request,Yes,Female,Yes,4,20,No
457,,,audio-button-response,9,65353,0.0-5.0-2.0-0.0,6j8b3x49wv,6j8b3x49wv,conventional,,../data/raw/scaled_stimuli_normed/17_question_box.wav,,,question,box,17.0,conventional,,,,No,Female,Yes,4,20,No
458,,1906.0100000351665,html-button-response,10,67516,0.0-5.0-2.0-1.0,6j8b3x49wv,6j8b3x49wv,conventional,,,0.0,,question,box,17.0,conventional,,,Request,No,Female,Yes,4,20,No
459,,,audio-button-response,11,69633,0.0-5.0-3.0-0.0,6j8b3x49wv,6j8b3x49wv,conventional,,../data/raw/scaled_stimuli_normed/17_request_box.wav,,,request,box,17.0,conventional,,,,No,Female,Yes,4,20,No
460,,400.7250000722706,html-button-response,12,70293,0.0-5.0-3.0-1.0,6j8b3x49wv,6j8b3x49wv,conventional,,,0.0,,request,box,17.0,conventional,,,Request,Yes,Female,Yes,4,20,No
461,,,audio-button-response,13,72082,0.0-5.0-4.0-0.0,6j8b3x49wv,6j8b3x49wv,conventional,,../data/raw/scaled_stimuli_normed/17_request_temp.wav,,,request,temp,17.0,conventional,,,,No,Female,Yes,4,20,No
462,,1239.6350000053646,html-button-response,14,73577,0.0-5.0-4.0-1.0,6j8b3x49wv,6j8b3x49wv,conventional,,,0.0,,request,temp,17.0,conventional,,,Request,No,Female,Yes,4,20,No
463,,,audio-button-response,15,75253,0.0-5.0-5.0-0.0,6j8b3x49wv,6j8b3x49wv,conventional,,../data/raw/scaled_stimuli_normed/17_question_piano.wav,,,question,piano,17.0,conventional,,,,No,Female,Yes,4,20,No
464,,2168.115000007674,html-button-response,16,77687,0.0-5.0-5.0-1.0,6j8b3x49wv,6j8b3x49wv,conventional,,,1.0,,question,piano,17.0,conventional,,,Non-Request,No,Female,Yes,4,20,No
465,,,audio-button-response,17,79403,0.0-5.0-6.0-0.0,6j8b3x49wv,6j8b3x49wv,conventional,,../data/raw/scaled_stimuli_normed/17_question_door.wav,,,question,door,17.0,conventional,,,,No,Female,Yes,4,20,No
466,,1716.175000066869,html-button-response,18,81374,0.0-5.0-6.0-1.0,6j8b3x49wv,6j8b3x49wv,conventional,,,0.0,,question,door,17.0,conventional,,,Request,No,Female,Yes,4,20,No
467,,,audio-button-response,19,83472,0.0-5.0-7.0-0.0,6j8b3x49wv,6j8b3x49wv,conventional,,../data/raw/scaled_stimuli_normed/17_request_window.wav,,,request,window,17.0,conventional,,,,No,Female,Yes,4,20,No
468,,1371.21000001207,html-button-response,20,85110,0.0-5.0-7.0-1.0,6j8b3x49wv,6j8b3x49wv,conventional,,,0.0,,request,window,17.0,conventional,,,Request,No,Female,Yes,4,20,No
469,,,audio-button-response,21,86773,0.0-5.0-8.0-0.0,6j8b3x49wv,6j8b3x49wv,conventional,,../data/raw/scaled_stimuli_normed/17_request_door.wav,,,request,door,17.0,conventional,,,,No,Female,Yes,4,20,No
470,,382.8799999319017,html-button-response,22,87423,0.0-5.0-8.0-1.0,6j8b3x49wv,6j8b3x49wv,conventional,,,0.0,,request,door,17.0,conventional,,,Request,Yes,Female,Yes,4,20,No
471,,,audio-button-response,23,89203,0.0-5.0-9.0-0.0,6j8b3x49wv,6j8b3x49wv,conventional,,../data/raw/scaled_stimuli_normed/17_request_piano.wav,,,request,piano,17.0,conventional,,,,No,Female,Yes,4,20,No
472,,488.07500000111764,html-button-response,24,89949,0.0-5.0-9.0-1.0,6j8b3x49wv,6j8b3x49wv,conventional,,,1.0,,request,piano,17.0,conventional,,,Non-Request,Yes,Female,Yes,4,20,No
473,,,audio-button-response,25,91783,0.0-5.0-10.0-0.0,6j8b3x49wv,6j8b3x49wv,conventional,,../data/raw/scaled_stimuli_normed/17_question_window.wav,,,question,window,17.0,conventional,,,,No,Female,Yes,4,20,No
474,,1302.8800000902265,html-button-response,26,93352,0.0-5.0-10.0-1.0,6j8b3x49wv,6j8b3x49wv,conventional,,,0.0,,question,window,17.0,conventional,,,Request,Yes,Female,Yes,4,20,No
475,,,audio-button-response,27,95533,0.0-5.0-11.0-0.0,6j8b3x49wv,6j8b3x49wv,conventional,,../data/raw/scaled_stimuli_normed/17_question_temp.wav,,,question,temp,17.0,conventional,,,,No,Female,Yes,4,20,No
476,,777.0749999908729,html-button-response,28,96563,0.0-5.0-11.0-1.0,6j8b3x49wv,6j8b3x49wv,conventional,,,0.0,,question,temp,17.0,conventional,,,Request,Yes,Female,Yes,4,20,No
477,,,audio-button-response,29,98192,0.0-6.0-0.0-0.0,6j8b3x49wv,6j8b3x49wv,conventional,,../data/raw/scaled_stimuli_normed/18_question_temp.wav,,,question,temp,18.0,conventional,,,,No,Female,Yes,4,20,No
478,,406.3249999890104,html-button-response,30,98855,0.0-6.0-0.0-1.0,6j8b3x49wv,6j8b3x49wv,conventional,,,0.0,,question,temp,18.0,conventional,,,Request,No,Female,Yes,4,20,No
479,,,audio-button-response,31,100672,0.0-6.0-1.0-0.0,6j8b3x49wv,6j8b3x49wv,conventional,,../data/raw/scaled_stimuli_normed/18_question_box.wav,,,question,box,18.0,conventional,,,,No,Female,Yes,4,20,No
480,,795.2250000089407,html-button-response,32,101729,0.0-6.0-1.0-1.0,6j8b3x49wv,6j8b3x49wv,conventional,,,0.0,,question,box,18.0,conventional,,,Request,No,Female,Yes,4,20,No
481,,,audio-button-response,33,103412,0.0-6.0-2.0-0.0,6j8b3x49wv,6j8b3x49wv,conventional,,../data/raw/scaled_stimuli_normed/18_request_box.wav,,,request,box,18.0,conventional,,,,No,Female,Yes,4,20,No
482,,636.2649999791756,html-button-response,34,104315,0.0-6.0-2.0-1.0,6j8b3x49wv,6j8b3x49wv,conventional,,,0.0,,request,box,18.0,conventional,,,Request,Yes,Female,Yes,4,20,No
483,,,audio-button-response,35,105773,0.0-6.0-3.0-0.0,6j8b3x49wv,6j8b3x49wv,conventional,,../data/raw/scaled_stimuli_normed/18_question_piano.wav,,,question,piano,18.0,conventional,,,,No,Female,Yes,4,20,No
484,,560.9650000697002,html-button-response,36,106595,0.0-6.0-3.0-1.0,6j8b3x49wv,6j8b3x49wv,conventional,,,1.0,,question,piano,18.0,conventional,,,Non-Request,No,Female,Yes,4,20,No
485,,,audio-button-response,37,108402,0.0-6.0-4.0-0.0,6j8b3x49wv,6j8b3x49wv,conventional,,../data/raw/scaled_stimuli_normed/18_request_temp.wav,,,request,temp,18.0,conventional,,,,No,Female,Yes,4,20,No
486,,649.7049999888986,html-button-response,38,109319,0.0-6.0-4.0-1.0,6j8b3x49wv,6j8b3x49wv,conventional,,,0.0,,request,temp,18.0,conventional,,,Request,Yes,Female,Yes,4,20,No
487,,,audio-button-response,39,110862,0.0-6.0-5.0-0.0,6j8b3x49wv,6j8b3x49wv,conventional,,../data/raw/scaled_stimuli_normed/18_request_door.wav,,,request,door,18.0,conventional,,,,No,Female,Yes,4,20,No
488,,390.80000005196786,html-button-response,40,111510,0.0-6.0-5.0-1.0,6j8b3x49wv,6j8b3x49wv,conventional,,,0.0,,request,door,18.0,conventional,,,Request,No,Female,Yes,4,20,No
489,,,audio-button-response,41,113242,0.0-6.0-6.0-0.0,6j8b3x49wv,6j8b3x49wv,conventional,,../data/raw/scaled_stimuli_normed/18_request_Spanish.wav,,,request,Spanish,18.0,conventional,,,,No,Female,Yes,4,20,No
490,,1656.6550000570714,html-button-response,42,115152,0.0-6.0-6.0-1.0,6j8b3x49wv,6j8b3x49wv,conventional,,,1.0,,request,Spanish,18.0,conventional,,,Non-Request,No,Female,Yes,4,20,No
491,,,audio-button-response,43,116702,0.0-6.0-7.0-0.0,6j8b3x49wv,6j8b3x49wv,conventional,,../data/raw/scaled_stimuli_normed/18_question_door.wav,,,question,door,18.0,conventional,,,,No,Female,Yes,4,20,No
492,,1556.7299999529496,html-button-response,44,118523,0.0-6.0-7.0-1.0,6j8b3x49wv,6j8b3x49wv,conventional,,,0.0,,question,door,18.0,conventional,,,Request,Yes,Female,Yes,4,20,No
493,,,audio-button-response,45,120193,0.0-6.0-8.0-0.0,6j8b3x49wv,6j8b3x49wv,conventional,,../data/raw/scaled_stimuli_normed/18_question_window.wav,,,question,window,18.0,conventional,,,,No,Female,Yes,4,20,No
494,,902.54499996081,html-button-response,46,121361,0.0-6.0-8.0-1.0,6j8b3x49wv,6j8b3x49wv,conventional,,,0.0,,question,window,18.0,conventional,,,Request,No,Female,Yes,4,20,No
495,,,audio-button-response,47,122892,0.0-6.0-9.0-0.0,6j8b3x49wv,6j8b3x49wv,conventional,,../data/raw/scaled_stimuli_normed/18_request_window.wav,,,request,window,18.0,conventional,,,,No,Female,Yes,4,20,No
496,,430.4549999069423,html-button-response,48,123587,0.0-6.0-9.0-1.0,6j8b3x49wv,6j8b3x49wv,conventional,,,0.0,,request,window,18.0,conventional,,,Request,Yes,Female,Yes,4,20,No
497,,,audio-button-response,49,125372,0.0-6.0-10.0-0.0,6j8b3x49wv,6j8b3x49wv,conventional,,../data/raw/scaled_stimuli_normed/18_question_Spanish.wav,,,question,Spanish,18.0,conventional,,,,No,Female,Yes,4,20,No
498,,888.2800000719726,html-button-response,50,126516,0.0-6.0-10.0-1.0,6j8b3x49wv,6j8b3x49wv,conventional,,,1.0,,question,Spanish,18.0,conventional,,,Non-Request,Yes,Female,Yes,4,20,No
499,,,audio-button-response,51,128163,0.0-6.0-11.0-0.0,6j8b3x49wv,6j8b3x49wv,conventional,,../data/raw/scaled_stimuli_normed/18_request_piano.wav,,,request,piano,18.0,conventional,,,,No,Female,Yes,4,20,No
500,,394.5799999637529,html-button-response,52,128824,0.0-6.0-11.0-1.0,6j8b3x49wv,6j8b3x49wv,conventional,,,0.0,,request,piano,18.0,conventional,,,Request,Yes,Female,Yes,4,20,No
501,,,audio-button-response,53,130613,0.0-7.0-0.0-0.0,6j8b3x49wv,6j8b3x49wv,conventional,,../data/raw/scaled_stimuli_normed/3_question_temp.wav,,,question,temp,3.0,conventional,,,,No,Female,Yes,4,20,No
502,,1591.6250000009313,html-button-response,54,132469,0.0-7.0-0.0-1.0,6j8b3x49wv,6j8b3x49wv,conventional,,,0.0,,question,temp,3.0,conventional,,,Request,No,Female,Yes,4,20,No
503,,,audio-button-response,55,134023,0.0-7.0-1.0-0.0,6j8b3x49wv,6j8b3x49wv,conventional,,../data/raw/scaled_stimuli_normed/3_request_door.wav,,,request,door,3.0,conventional,,,,No,Female,Yes,4,20,No
504,,2433.674999978393,html-button-response,56,136719,0.0-7.0-1.0-1.0,6j8b3x49wv,6j8b3x49wv,conventional,,,1.0,,request,door,3.0,conventional,,,Non-Request,No,Female,Yes,4,20,No
505,,,audio-button-response,57,138393,0.0-7.0-2.0-0.0,6j8b3x49wv,6j8b3x49wv,conventional,,../data/raw/scaled_stimuli_normed/3_question_piano.wav,,,question,piano,3.0,conventional,,,,No,Female,Yes,4,20,No
506,,1350.3949999576434,html-button-response,58,140003,0.0-7.0-2.0-1.0,6j8b3x49wv,6j8b3x49wv,conventional,,,1.0,,question,piano,3.0,conventional,,,Non-Request,No,Female,Yes,4,20,No
507,,,audio-button-response,59,141853,0.0-7.0-3.0-0.0,6j8b3x49wv,6j8b3x49wv,conventional,,../data/raw/scaled_stimuli_normed/3_request_Spanish.wav,,,request,Spanish,3.0,conventional,,,,No,Female,Yes,4,20,No
508,,657.6249999925493,html-button-response,60,142763,0.0-7.0-3.0-1.0,6j8b3x49wv,6j8b3x49wv,conventional,,,1.0,,request,Spanish,3.0,conventional,,,Non-Request,No,Female,Yes,4,20,No
509,,,audio-button-response,61,144582,0.0-7.0-4.0-0.0,6j8b3x49wv,6j8b3x49wv,conventional,,../data/raw/scaled_stimuli_normed/3_question_box.wav,,,question,box,3.0,conventional,,,,No,Female,Yes,4,20,No
510,,712.8650000086053,html-button-response,62,145547,0.0-7.0-4.0-1.0,6j8b3x49wv,6j8b3x49wv,conventional,,,0.0,,question,box,3.0,conventional,,,Request,No,Female,Yes,4,20,No
