rt,trial_index,subject,form_assignment,button_pressed,condition,topic,speaker,form,response,already_heard_by_speaker,Gender,Native_Speaker,Music_Ability,Age,Mobile
12759.83,0,yas2e2mcsw,non_conventional,,,,,,,No,Male,Yes,4,19,No
3456.715,1,yas2e2mcsw,non_conventional,,,,,,,No,Male,Yes,4,19,No
1127.705,2,yas2e2mcsw,non_conventional,,,,,,,No,Male,Yes,4,19,No
3621.16,3,yas2e2mcsw,non_conventional,2,,,,,,No,Male,Yes,4,19,No
4077.57,4,yas2e2mcsw,non_conventional,,,,,,,No,Male,Yes,4,19,No
,5,yas2e2mcsw,non_conventional,,request,soup,1,nonconventional,,No,Male,Yes,4,19,No
448.765,6,yas2e2mcsw,non_conventional,0,request,soup,1,nonconventional,Request,No,Male,Yes,4,19,No
,7,yas2e2mcsw,non_conventional,,request,car,1,nonconventional,,No,Male,Yes,4,19,No
620.74,8,yas2e2mcsw,non_conventional,1,request,car,1,nonconventional,Non-Request,No,Male,Yes,4,19,No
,9,yas2e2mcsw,non_conventional,,request,laptop,1,nonconventional,,No,Male,Yes,4,19,No
1577.895,10,yas2e2mcsw,non_conventional,1,request,laptop,1,nonconventional,Non-Request,No,Male,Yes,4,19,No
,11,yas2e2mcsw,non_conventional,,request,phone,1,nonconventional,,No,Male,Yes,4,19,No
318.345,12,yas2e2mcsw,non_conventional,0,request,phone,1,nonconventional,Request,No,Male,Yes,4,19,No
,13,yas2e2mcsw,non_conventional,,statement,soup,1,nonconventional,,No,Male,Yes,4,19,No
453.38,14,yas2e2mcsw,non_conventional,0,statement,soup,1,nonconventional,Request,Yes,Male,Yes,4,19,No
,15,yas2e2mcsw,non_conventional,,statement,office,1,nonconventional,,No,Male,Yes,4,19,No
612.01,16,yas2e2mcsw,non_conventional,0,statement,office,1,nonconventional,Request,No,Male,Yes,4,19,No
,17,yas2e2mcsw,non_conventional,,request,back,1,nonconventional,,No,Male,Yes,4,19,No
324.51,18,yas2e2mcsw,non_conventional,1,request,back,1,nonconventional,Non-Request,No,Male,Yes,4,19,No
,19,yas2e2mcsw,non_conventional,,statement,car,1,nonconventional,,No,Male,Yes,4,19,No
279.38,20,yas2e2mcsw,non_conventional,1,statement,car,1,nonconventional,Non-Request,Yes,Male,Yes,4,19,No
,21,yas2e2mcsw,non_conventional,,statement,laptop,1,nonconventional,,No,Male,Yes,4,19,No
411.96,22,yas2e2mcsw,non_conventional,1,statement,laptop,1,nonconventional,Non-Request,Yes,Male,Yes,4,19,No
,23,yas2e2mcsw,non_conventional,,request,office,1,nonconventional,,No,Male,Yes,4,19,No
644.535,24,yas2e2mcsw,non_conventional,1,request,office,1,nonconventional,Non-Request,Yes,Male,Yes,4,19,No
,25,yas2e2mcsw,non_conventional,,statement,back,1,nonconventional,,No,Male,Yes,4,19,No
897.785,26,yas2e2mcsw,non_conventional,0,statement,back,1,nonconventional,Request,Yes,Male,Yes,4,19,No
,27,yas2e2mcsw,non_conventional,,statement,phone,1,nonconventional,,No,Male,Yes,4,19,No
658.11,28,yas2e2mcsw,non_conventional,1,statement,phone,1,nonconventional,Non-Request,Yes,Male,Yes,4,19,No
,29,yas2e2mcsw,non_conventional,,request,phone,2,nonconventional,,No,Male,Yes,4,19,No
321.96,30,yas2e2mcsw,non_conventional,1,request,phone,2,nonconventional,Non-Request,No,Male,Yes,4,19,No
,31,yas2e2mcsw,non_conventional,,statement,soup,2,nonconventional,,No,Male,Yes,4,19,No
446.095,32,yas2e2mcsw,non_conventional,0,statement,soup,2,nonconventional,Request,No,Male,Yes,4,19,No
,33,yas2e2mcsw,non_conventional,,statement,car,2,nonconventional,,No,Male,Yes,4,19,No
512.315,34,yas2e2mcsw,non_conventional,0,statement,car,2,nonconventional,Request,No,Male,Yes,4,19,No
,35,yas2e2mcsw,non_conventional,,request,back,2,nonconventional,,No,Male,Yes,4,19,No
1122.54,36,yas2e2mcsw,non_conventional,0,request,back,2,nonconventional,Request,No,Male,Yes,4,19,No
,37,yas2e2mcsw,non_conventional,,request,office,2,nonconventional,,No,Male,Yes,4,19,No
317.65,38,yas2e2mcsw,non_conventional,1,request,office,2,nonconventional,Non-Request,No,Male,Yes,4,19,No
,39,yas2e2mcsw,non_conventional,,request,laptop,2,nonconventional,,No,Male,Yes,4,19,No
622.12,40,yas2e2mcsw,non_conventional,1,request,laptop,2,nonconventional,Non-Request,No,Male,Yes,4,19,No
,41,yas2e2mcsw,non_conventional,,request,car,2,nonconventional,,No,Male,Yes,4,19,No
264.27,42,yas2e2mcsw,non_conventional,1,request,car,2,nonconventional,Non-Request,Yes,Male,Yes,4,19,No
,43,yas2e2mcsw,non_conventional,,statement,office,2,nonconventional,,No,Male,Yes,4,19,No
572.105,44,yas2e2mcsw,non_conventional,0,statement,office,2,nonconventional,Request,Yes,Male,Yes,4,19,No
,45,yas2e2mcsw,non_conventional,,statement,laptop,2,nonconventional,,No,Male,Yes,4,19,No
3514.04,46,yas2e2mcsw,non_conventional,1,statement,laptop,2,nonconventional,Non-Request,Yes,Male,Yes,4,19,No
,47,yas2e2mcsw,non_conventional,,statement,back,2,nonconventional,,No,Male,Yes,4,19,No
13372.255,48,yas2e2mcsw,non_conventional,1,statement,back,2,nonconventional,Non-Request,Yes,Male,Yes,4,19,No
,49,yas2e2mcsw,non_conventional,,statement,phone,2,nonconventional,,No,Male,Yes,4,19,No
634.95,50,yas2e2mcsw,non_conventional,0,statement,phone,2,nonconventional,Request,Yes,Male,Yes,4,19,No
,51,yas2e2mcsw,non_conventional,,request,soup,2,nonconventional,,No,Male,Yes,4,19,No
289.15,52,yas2e2mcsw,non_conventional,0,request,soup,2,nonconventional,Request,Yes,Male,Yes,4,19,No
,53,yas2e2mcsw,non_conventional,,request,back,20,nonconventional,,No,Male,Yes,4,19,No
552.49,54,yas2e2mcsw,non_conventional,1,request,back,20,nonconventional,Non-Request,No,Male,Yes,4,19,No
,55,yas2e2mcsw,non_conventional,,request,car,20,nonconventional,,No,Male,Yes,4,19,No
398.185,56,yas2e2mcsw,non_conventional,0,request,car,20,nonconventional,Request,No,Male,Yes,4,19,No
,57,yas2e2mcsw,non_conventional,,request,office,20,nonconventional,,No,Male,Yes,4,19,No
246.985,58,yas2e2mcsw,non_conventional,0,request,office,20,nonconventional,Request,No,Male,Yes,4,19,No
,59,yas2e2mcsw,non_conventional,,request,soup,20,nonconventional,,No,Male,Yes,4,19,No
994.1,60,yas2e2mcsw,non_conventional,0,request,soup,20,nonconventional,Request,No,Male,Yes,4,19,No
,61,yas2e2mcsw,non_conventional,,statement,car,20,nonconventional,,No,Male,Yes,4,19,No
325.775,62,yas2e2mcsw,non_conventional,1,statement,car,20,nonconventional,Non-Request,Yes,Male,Yes,4,19,No
,63,yas2e2mcsw,non_conventional,,statement,phone,20,nonconventional,,No,Male,Yes,4,19,No
321.62,64,yas2e2mcsw,non_conventional,0,statement,phone,20,nonconventional,Request,No,Male,Yes,4,19,No
,65,yas2e2mcsw,non_conventional,,statement,back,20,nonconventional,,No,Male,Yes,4,19,No
519.965,66,yas2e2mcsw,non_conventional,1,statement,back,20,nonconventional,Non-Request,Yes,Male,Yes,4,19,No
,67,yas2e2mcsw,non_conventional,,statement,office,20,nonconventional,,No,Male,Yes,4,19,No
272.095,68,yas2e2mcsw,non_conventional,1,statement,office,20,nonconventional,Non-Request,Yes,Male,Yes,4,19,No
,69,yas2e2mcsw,non_conventional,,statement,soup,20,nonconventional,,No,Male,Yes,4,19,No
1017.82,70,yas2e2mcsw,non_conventional,0,statement,soup,20,nonconventional,Request,Yes,Male,Yes,4,19,No
,71,yas2e2mcsw,non_conventional,,statement,laptop,20,nonconventional,,No,Male,Yes,4,19,No
570.575,72,yas2e2mcsw,non_conventional,1,statement,laptop,20,nonconventional,Non-Request,No,Male,Yes,4,19,No
,73,yas2e2mcsw,non_conventional,,request,phone,20,nonconventional,,No,Male,Yes,4,19,No
280.16,74,yas2e2mcsw,non_conventional,1,request,phone,20,nonconventional,Non-Request,Yes,Male,Yes,4,19,No
,75,yas2e2mcsw,non_conventional,,request,laptop,20,nonconventional,,No,Male,Yes,4,19,No
225.805,76,yas2e2mcsw,non_conventional,1,request,laptop,20,nonconventional,Non-Request,Yes,Male,Yes,4,19,No
,77,yas2e2mcsw,non_conventional,,request,soup,11,nonconventional,,No,Male,Yes,4,19,No
342.81,78,yas2e2mcsw,non_conventional,0,request,soup,11,nonconventional,Request,No,Male,Yes,4,19,No
,79,yas2e2mcsw,non_conventional,,statement,soup,11,nonconventional,,No,Male,Yes,4,19,No
228.32,80,yas2e2mcsw,non_conventional,0,statement,soup,11,nonconventional,Request,Yes,Male,Yes,4,19,No
,81,yas2e2mcsw,non_conventional,,statement,laptop,11,nonconventional,,No,Male,Yes,4,19,No
486.515,82,yas2e2mcsw,non_conventional,1,statement,laptop,11,nonconventional,Non-Request,No,Male,Yes,4,19,No
,83,yas2e2mcsw,non_conventional,,statement,car,11,nonconventional,,No,Male,Yes,4,19,No
252.265,84,yas2e2mcsw,non_conventional,1,statement,car,11,nonconventional,Non-Request,No,Male,Yes,4,19,No
,85,yas2e2mcsw,non_conventional,,request,car,11,nonconventional,,No,Male,Yes,4,19,No
581.1,86,yas2e2mcsw,non_conventional,0,request,car,11,nonconventional,Request,Yes,Male,Yes,4,19,No
,87,yas2e2mcsw,non_conventional,,request,phone,11,nonconventional,,No,Male,Yes,4,19,No
299.71,88,yas2e2mcsw,non_conventional,0,request,phone,11,nonconventional,Request,No,Male,Yes,4,19,No
,89,yas2e2mcsw,non_conventional,,statement,back,11,nonconventional,,No,Male,Yes,4,19,No
381.33,90,yas2e2mcsw,non_conventional,1,statement,back,11,nonconventional,Non-Request,No,Male,Yes,4,19,No
,91,yas2e2mcsw,non_conventional,,request,laptop,11,nonconventional,,No,Male,Yes,4,19,No
380.11,92,yas2e2mcsw,non_conventional,0,request,laptop,11,nonconventional,Request,Yes,Male,Yes,4,19,No
,93,yas2e2mcsw,non_conventional,,request,office,11,nonconventional,,No,Male,Yes,4,19,No
478.07,94,yas2e2mcsw,non_conventional,0,request,office,11,nonconventional,Request,No,Male,Yes,4,19,No
,95,yas2e2mcsw,non_conventional,,request,back,11,nonconventional,,No,Male,Yes,4,19,No
290.71,96,yas2e2mcsw,non_conventional,1,request,back,11,nonconventional,Non-Request,Yes,Male,Yes,4,19,No
,97,yas2e2mcsw,non_conventional,,statement,office,11,nonconventional,,No,Male,Yes,4,19,No
850.16,98,yas2e2mcsw,non_conventional,0,statement,office,11,nonconventional,Request,Yes,Male,Yes,4,19,No
,99,yas2e2mcsw,non_conventional,,statement,phone,11,nonconventional,,No,Male,Yes,4,19,No
796.935,100,yas2e2mcsw,non_conventional,0,statement,phone,11,nonconventional,Request,Yes,Male,Yes,4,19,No
,101,yas2e2mcsw,non_conventional,,request,back,22,nonconventional,,No,Male,Yes,4,19,No
283.68,102,yas2e2mcsw,non_conventional,1,request,back,22,nonconventional,Non-Request,No,Male,Yes,4,19,No
,103,yas2e2mcsw,non_conventional,,statement,soup,22,nonconventional,,No,Male,Yes,4,19,No
936.73,104,yas2e2mcsw,non_conventional,1,statement,soup,22,nonconventional,Non-Request,No,Male,Yes,4,19,No
,105,yas2e2mcsw,non_conventional,,request,car,22,nonconventional,,No,Male,Yes,4,19,No
278.69,106,yas2e2mcsw,non_conventional,0,request,car,22,nonconventional,Request,No,Male,Yes,4,19,No
,107,yas2e2mcsw,non_conventional,,statement,car,22,nonconventional,,No,Male,Yes,4,19,No
304.825,108,yas2e2mcsw,non_conventional,1,statement,car,22,nonconventional,Non-Request,Yes,Male,Yes,4,19,No
,109,yas2e2mcsw,non_conventional,,statement,laptop,22,nonconventional,,No,Male,Yes,4,19,No
504.12,110,yas2e2mcsw,non_conventional,0,statement,laptop,22,nonconventional,Request,No,Male,Yes,4,19,No
,111,yas2e2mcsw,non_conventional,,statement,back,22,nonconventional,,No,Male,Yes,4,19,No
418.59,112,yas2e2mcsw,non_conventional,0,statement,back,22,nonconventional,Request,Yes,Male,Yes,4,19,No
,113,yas2e2mcsw,non_conventional,,statement,office,22,nonconventional,,No,Male,Yes,4,19,No
358.515,114,yas2e2mcsw,non_conventional,1,statement,office,22,nonconventional,Non-Request,No,Male,Yes,4,19,No
,115,yas2e2mcsw,non_conventional,,request,laptop,22,nonconventional,,No,Male,Yes,4,19,No
328.435,116,yas2e2mcsw,non_conventional,0,request,laptop,22,nonconventional,Request,Yes,Male,Yes,4,19,No
,117,yas2e2mcsw,non_conventional,,statement,phone,22,nonconventional,,No,Male,Yes,4,19,No
328.615,118,yas2e2mcsw,non_conventional,1,statement,phone,22,nonconventional,Non-Request,No,Male,Yes,4,19,No
,119,yas2e2mcsw,non_conventional,,request,phone,22,nonconventional,,No,Male,Yes,4,19,No
298.26,120,yas2e2mcsw,non_conventional,0,request,phone,22,nonconventional,Request,Yes,Male,Yes,4,19,No
,121,yas2e2mcsw,non_conventional,,request,soup,22,nonconventional,,No,Male,Yes,4,19,No
204.19,122,yas2e2mcsw,non_conventional,0,request,soup,22,nonconventional,Request,Yes,Male,Yes,4,19,No
,123,yas2e2mcsw,non_conventional,,request,office,22,nonconventional,,No,Male,Yes,4,19,No
340.61,124,yas2e2mcsw,non_conventional,0,request,office,22,nonconventional,Request,Yes,Male,Yes,4,19,No
,125,yas2e2mcsw,non_conventional,,statement,phone,4,nonconventional,,No,Male,Yes,4,19,No
584.505,126,yas2e2mcsw,non_conventional,1,statement,phone,4,nonconventional,Non-Request,No,Male,Yes,4,19,No
,127,yas2e2mcsw,non_conventional,,request,office,4,nonconventional,,No,Male,Yes,4,19,No
302.87,128,yas2e2mcsw,non_conventional,1,request,office,4,nonconventional,Non-Request,No,Male,Yes,4,19,No
,129,yas2e2mcsw,non_conventional,,statement,car,4,nonconventional,,No,Male,Yes,4,19,No
194.08,130,yas2e2mcsw,non_conventional,0,statement,car,4,nonconventional,Request,No,Male,Yes,4,19,No
,131,yas2e2mcsw,non_conventional,,statement,office,4,nonconventional,,No,Male,Yes,4,19,No
317.315,132,yas2e2mcsw,non_conventional,0,statement,office,4,nonconventional,Request,Yes,Male,Yes,4,19,No
,133,yas2e2mcsw,non_conventional,,request,phone,4,nonconventional,,No,Male,Yes,4,19,No
264.545,134,yas2e2mcsw,non_conventional,1,request,phone,4,nonconventional,Non-Request,Yes,Male,Yes,4,19,No
,135,yas2e2mcsw,non_conventional,,request,soup,4,nonconventional,,No,Male,Yes,4,19,No
329.2,136,yas2e2mcsw,non_conventional,0,request,soup,4,nonconventional,Request,No,Male,Yes,4,19,No
,137,yas2e2mcsw,non_conventional,,statement,soup,4,nonconventional,,No,Male,Yes,4,19,No
302.08,138,yas2e2mcsw,non_conventional,0,statement,soup,4,nonconventional,Request,Yes,Male,Yes,4,19,No
,139,yas2e2mcsw,non_conventional,,request,laptop,4,nonconventional,,No,Male,Yes,4,19,No
272.32,140,yas2e2mcsw,non_conventional,1,request,laptop,4,nonconventional,Non-Request,No,Male,Yes,4,19,No
,141,yas2e2mcsw,non_conventional,,request,back,4,nonconventional,,No,Male,Yes,4,19,No
282.195,142,yas2e2mcsw,non_conventional,0,request,back,4,nonconventional,Request,No,Male,Yes,4,19,No
,143,yas2e2mcsw,non_conventional,,request,car,4,nonconventional,,No,Male,Yes,4,19,No
239.825,144,yas2e2mcsw,non_conventional,0,request,car,4,nonconventional,Request,Yes,Male,Yes,4,19,No
,145,yas2e2mcsw,non_conventional,,statement,laptop,4,nonconventional,,No,Male,Yes,4,19,No
226.78,146,yas2e2mcsw,non_conventional,1,statement,laptop,4,nonconventional,Non-Request,Yes,Male,Yes,4,19,No
,147,yas2e2mcsw,non_conventional,,statement,back,4,nonconventional,,No,Male,Yes,4,19,No
316.96,148,yas2e2mcsw,non_conventional,0,statement,back,4,nonconventional,Request,Yes,Male,Yes,4,19,No
,149,yas2e2mcsw,non_conventional,,statement,phone,25,nonconventional,,No,Male,Yes,4,19,No
236.865,150,yas2e2mcsw,non_conventional,0,statement,phone,25,nonconventional,Request,No,Male,Yes,4,19,No
,151,yas2e2mcsw,non_conventional,,request,laptop,25,nonconventional,,No,Male,Yes,4,19,No
230.95,152,yas2e2mcsw,non_conventional,1,request,laptop,25,nonconventional,Non-Request,No,Male,Yes,4,19,No
,153,yas2e2mcsw,non_conventional,,request,office,25,nonconventional,,No,Male,Yes,4,19,No
236.685,154,yas2e2mcsw,non_conventional,1,request,office,25,nonconventional,Non-Request,No,Male,Yes,4,19,No
,155,yas2e2mcsw,non_conventional,,statement,back,25,nonconventional,,No,Male,Yes,4,19,No
84.42,156,yas2e2mcsw,non_conventional,0,statement,back,25,nonconventional,Request,No,Male,Yes,4,19,No
,157,yas2e2mcsw,non_conventional,,statement,car,25,nonconventional,,No,Male,Yes,4,19,No
389.11,158,yas2e2mcsw,non_conventional,0,statement,car,25,nonconventional,Request,No,Male,Yes,4,19,No
,159,yas2e2mcsw,non_conventional,,statement,soup,25,nonconventional,,No,Male,Yes,4,19,No
206.64,160,yas2e2mcsw,non_conventional,1,statement,soup,25,nonconventional,Non-Request,No,Male,Yes,4,19,No
,161,yas2e2mcsw,non_conventional,,statement,office,25,nonconventional,,No,Male,Yes,4,19,No
137.875,162,yas2e2mcsw,non_conventional,1,statement,office,25,nonconventional,Non-Request,Yes,Male,Yes,4,19,No
,163,yas2e2mcsw,non_conventional,,request,soup,25,nonconventional,,No,Male,Yes,4,19,No
256.21,164,yas2e2mcsw,non_conventional,0,request,soup,25,nonconventional,Request,Yes,Male,Yes,4,19,No
,165,yas2e2mcsw,non_conventional,,request,car,25,nonconventional,,No,Male,Yes,4,19,No
96.745,166,yas2e2mcsw,non_conventional,1,request,car,25,nonconventional,Non-Request,Yes,Male,Yes,4,19,No
,167,yas2e2mcsw,non_conventional,,request,back,25,nonconventional,,No,Male,Yes,4,19,No
229.16,168,yas2e2mcsw,non_conventional,0,request,back,25,nonconventional,Request,Yes,Male,Yes,4,19,No
,169,yas2e2mcsw,non_conventional,,request,phone,25,nonconventional,,No,Male,Yes,4,19,No
244.325,170,yas2e2mcsw,non_conventional,1,request,phone,25,nonconventional,Non-Request,Yes,Male,Yes,4,19,No
,171,yas2e2mcsw,non_conventional,,statement,laptop,25,nonconventional,,No,Male,Yes,4,19,No
404.98,172,yas2e2mcsw,non_conventional,0,statement,laptop,25,nonconventional,Request,Yes,Male,Yes,4,19,No
,173,yas2e2mcsw,non_conventional,,statement,office,18,nonconventional,,No,Male,Yes,4,19,No
820.33,174,yas2e2mcsw,non_conventional,1,statement,office,18,nonconventional,Non-Request,No,Male,Yes,4,19,No
,175,yas2e2mcsw,non_conventional,,statement,back,18,nonconventional,,No,Male,Yes,4,19,No
532.82,176,yas2e2mcsw,non_conventional,1,statement,back,18,nonconventional,Non-Request,No,Male,Yes,4,19,No
,177,yas2e2mcsw,non_conventional,,request,laptop,18,nonconventional,,No,Male,Yes,4,19,No
824.52,178,yas2e2mcsw,non_conventional,1,request,laptop,18,nonconventional,Non-Request,No,Male,Yes,4,19,No
,179,yas2e2mcsw,non_conventional,,request,office,18,nonconventional,,No,Male,Yes,4,19,No
313.115,180,yas2e2mcsw,non_conventional,0,request,office,18,nonconventional,Request,Yes,Male,Yes,4,19,No
,181,yas2e2mcsw,non_conventional,,statement,phone,18,nonconventional,,No,Male,Yes,4,19,No
2051.985,182,yas2e2mcsw,non_conventional,1,statement,phone,18,nonconventional,Non-Request,No,Male,Yes,4,19,No
,183,yas2e2mcsw,non_conventional,,request,soup,18,nonconventional,,No,Male,Yes,4,19,No
2572.345,184,yas2e2mcsw,non_conventional,0,request,soup,18,nonconventional,Request,No,Male,Yes,4,19,No
,185,yas2e2mcsw,non_conventional,,request,back,18,nonconventional,,No,Male,Yes,4,19,No
562.785,186,yas2e2mcsw,non_conventional,0,request,back,18,nonconventional,Request,Yes,Male,Yes,4,19,No
,187,yas2e2mcsw,non_conventional,,statement,car,18,nonconventional,,No,Male,Yes,4,19,No
513.01,188,yas2e2mcsw,non_conventional,0,statement,car,18,nonconventional,Request,No,Male,Yes,4,19,No
,189,yas2e2mcsw,non_conventional,,statement,laptop,18,nonconventional,,No,Male,Yes,4,19,No
646.45,190,yas2e2mcsw,non_conventional,1,statement,laptop,18,nonconventional,Non-Request,Yes,Male,Yes,4,19,No
,191,yas2e2mcsw,non_conventional,,request,car,18,nonconventional,,No,Male,Yes,4,19,No
659.88,192,yas2e2mcsw,non_conventional,0,request,car,18,nonconventional,Request,Yes,Male,Yes,4,19,No
,193,yas2e2mcsw,non_conventional,,request,phone,18,nonconventional,,No,Male,Yes,4,19,No
432.195,194,yas2e2mcsw,non_conventional,1,request,phone,18,nonconventional,Non-Request,Yes,Male,Yes,4,19,No
,195,yas2e2mcsw,non_conventional,,statement,soup,18,nonconventional,,No,Male,Yes,4,19,No
559.22,196,yas2e2mcsw,non_conventional,0,statement,soup,18,nonconventional,Request,Yes,Male,Yes,4,19,No
,197,yas2e2mcsw,non_conventional,,request,car,5,nonconventional,,No,Male,Yes,4,19,No
276.945,198,yas2e2mcsw,non_conventional,1,request,car,5,nonconventional,Non-Request,No,Male,Yes,4,19,No
,199,yas2e2mcsw,non_conventional,,statement,phone,5,nonconventional,,No,Male,Yes,4,19,No
303.105,200,yas2e2mcsw,non_conventional,0,statement,phone,5,nonconventional,Request,No,Male,Yes,4,19,No
,201,yas2e2mcsw,non_conventional,,request,laptop,5,nonconventional,,No,Male,Yes,4,19,No
333.13,202,yas2e2mcsw,non_conventional,1,request,laptop,5,nonconventional,Non-Request,No,Male,Yes,4,19,No
,203,yas2e2mcsw,non_conventional,,request,soup,5,nonconventional,,No,Male,Yes,4,19,No
229.255,204,yas2e2mcsw,non_conventional,0,request,soup,5,nonconventional,Request,No,Male,Yes,4,19,No
,205,yas2e2mcsw,non_conventional,,statement,soup,5,nonconventional,,No,Male,Yes,4,19,No
426.62,206,yas2e2mcsw,non_conventional,0,statement,soup,5,nonconventional,Request,Yes,Male,Yes,4,19,No
,207,yas2e2mcsw,non_conventional,,request,back,5,nonconventional,,No,Male,Yes,4,19,No
494.8,208,yas2e2mcsw,non_conventional,1,request,back,5,nonconventional,Non-Request,No,Male,Yes,4,19,No
,209,yas2e2mcsw,non_conventional,,request,phone,5,nonconventional,,No,Male,Yes,4,19,No
260.62,210,yas2e2mcsw,non_conventional,0,request,phone,5,nonconventional,Request,Yes,Male,Yes,4,19,No
,211,yas2e2mcsw,non_conventional,,statement,laptop,5,nonconventional,,No,Male,Yes,4,19,No
262.95,212,yas2e2mcsw,non_conventional,1,statement,laptop,5,nonconventional,Non-Request,Yes,Male,Yes,4,19,No
,213,yas2e2mcsw,non_conventional,,statement,back,5,nonconventional,,No,Male,Yes,4,19,No
178.73,214,yas2e2mcsw,non_conventional,0,statement,back,5,nonconventional,Request,Yes,Male,Yes,4,19,No
,215,yas2e2mcsw,non_conventional,,statement,car,5,nonconventional,,No,Male,Yes,4,19,No
163.335,216,yas2e2mcsw,non_conventional,0,statement,car,5,nonconventional,Request,Yes,Male,Yes,4,19,No
,217,yas2e2mcsw,non_conventional,,request,office,5,nonconventional,,No,Male,Yes,4,19,No
328.785,218,yas2e2mcsw,non_conventional,0,request,office,5,nonconventional,Request,No,Male,Yes,4,19,No
,219,yas2e2mcsw,non_conventional,,statement,office,5,nonconventional,,No,Male,Yes,4,19,No
264.27,220,yas2e2mcsw,non_conventional,0,statement,office,5,nonconventional,Request,Yes,Male,Yes,4,19,No
9641.93,221,yas2e2mcsw,non_conventional,,,,,,,No,Male,Yes,4,19,No
7063.08,222,yas2e2mcsw,non_conventional,,,,,,,No,Male,Yes,4,19,No
2261.185,223,yas2e2mcsw,non_conventional,,,,,,,No,Male,Yes,4,19,No
3175.05,0,j6jk395wtj,conventional,,,,,,,No,Female,Yes,5,21,No
3681.48,1,j6jk395wtj,conventional,,,,,,,No,Female,Yes,5,21,No
1945.025,2,j6jk395wtj,conventional,,,,,,,No,Female,Yes,5,21,No
3258.84,3,j6jk395wtj,conventional,2,,,,,,No,Female,Yes,5,21,No
11503.775,4,j6jk395wtj,conventional,,,,,,,No,Female,Yes,5,21,No
,5,j6jk395wtj,conventional,,question,box,4,conventional,,No,Female,Yes,5,21,No
1010.645,6,j6jk395wtj,conventional,0,question,box,4,conventional,Request,No,Female,Yes,5,21,No
,7,j6jk395wtj,conventional,,request,door,4,conventional,,No,Female,Yes,5,21,No
1005.225,8,j6jk395wtj,conventional,1,request,door,4,conventional,Non-Request,No,Female,Yes,5,21,No
,9,j6jk395wtj,conventional,,request,temp,4,conventional,,No,Female,Yes,5,21,No
1312.675,10,j6jk395wtj,conventional,1,request,temp,4,conventional,Non-Request,No,Female,Yes,5,21,No
,11,j6jk395wtj,conventional,,question,piano,4,conventional,,No,Female,Yes,5,21,No
963.525,12,j6jk395wtj,conventional,1,question,piano,4,conventional,Non-Request,No,Female,Yes,5,21,No
,13,j6jk395wtj,conventional,,question,window,4,conventional,,No,Female,Yes,5,21,No
1792.825,14,j6jk395wtj,conventional,0,question,window,4,conventional,Request,No,Female,Yes,5,21,No
,15,j6jk395wtj,conventional,,question,door,4,conventional,,No,Female,Yes,5,21,No
423.21,16,j6jk395wtj,conventional,0,question,door,4,conventional,Request,Yes,Female,Yes,5,21,No
,17,j6jk395wtj,conventional,,question,Spanish,4,conventional,,No,Female,Yes,5,21,No
1614.66,18,j6jk395wtj,conventional,0,question,Spanish,4,conventional,Request,No,Female,Yes,5,21,No
,19,j6jk395wtj,conventional,,question,temp,4,conventional,,No,Female,Yes,5,21,No
2149.23,20,j6jk395wtj,conventional,0,question,temp,4,conventional,Request,Yes,Female,Yes,5,21,No
,21,j6jk395wtj,conventional,,request,window,4,conventional,,No,Female,Yes,5,21,No
1036.825,22,j6jk395wtj,conventional,0,request,window,4,conventional,Request,Yes,Female,Yes,5,21,No
,23,j6jk395wtj,conventional,,request,piano,4,conventional,,No,Female,Yes,5,21,No
1083.64,24,j6jk395wtj,conventional,1,request,piano,4,conventional,Non-Request,Yes,Female,Yes,5,21,No
,25,j6jk395wtj,conventional,,request,box,4,conventional,,No,Female,Yes,5,21,No
479.955,26,j6jk395wtj,conventional,0,request,box,4,conventional,Request,Yes,Female,Yes,5,21,No
,27,j6jk395wtj,conventional,,request,Spanish,4,conventional,,No,Female,Yes,5,21,No
1193.515,28,j6jk395wtj,conventional,1,request,Spanish,4,conventional,Non-Request,Yes,Female,Yes,5,21,No
,29,j6jk395wtj,conventional,,request,temp,5,conventional,,No,Female,Yes,5,21,No
691.8,30,j6jk395wtj,conventional,0,request,temp,5,conventional,Request,No,Female,Yes,5,21,No
,31,j6jk395wtj,conventional,,question,Spanish,5,conventional,,No,Female,Yes,5,21,No
709.655,32,j6jk395wtj,conventional,1,question,Spanish,5,conventional,Non-Request,No,Female,Yes,5,21,No
,33,j6jk395wtj,conventional,,question,piano,5,conventional,,No,Female,Yes,5,21,No
848.43,34,j6jk395wtj,conventional,1,question,piano,5,conventional,Non-Request,No,Female,Yes,5,21,No
,35,j6jk395wtj,conventional,,question,window,5,conventional,,No,Female,Yes,5,21,No
1660.715,36,j6jk395wtj,conventional,0,question,window,5,conventional,Request,No,Female,Yes,5,21,No
,37,j6jk395wtj,conventional,,request,Spanish,5,conventional,,No,Female,Yes,5,21,No
1070.78,38,j6jk395wtj,conventional,1,request,Spanish,5,conventional,Non-Request,Yes,Female,Yes,5,21,No
,39,j6jk395wtj,conventional,,request,piano,5,conventional,,No,Female,Yes,5,21,No
2196.49,40,j6jk395wtj,conventional,1,request,piano,5,conventional,Non-Request,Yes,Female,Yes,5,21,No
,41,j6jk395wtj,conventional,,question,box,5,conventional,,No,Female,Yes,5,21,No
525.875,42,j6jk395wtj,conventional,0,question,box,5,conventional,Request,No,Female,Yes,5,21,No
,43,j6jk395wtj,conventional,,question,door,5,conventional,,No,Female,Yes,5,21,No
713.3600001,44,j6jk395wtj,conventional,0,question,door,5,conventional,Request,No,Female,Yes,5,21,No
,45,j6jk395wtj,conventional,,question,temp,5,conventional,,No,Female,Yes,5,21,No
1319.515,46,j6jk395wtj,conventional,1,question,temp,5,conventional,Non-Request,Yes,Female,Yes,5,21,No
,47,j6jk395wtj,conventional,,request,box,5,conventional,,No,Female,Yes,5,21,No
936.62,48,j6jk395wtj,conventional,0,request,box,5,conventional,Request,Yes,Female,Yes,5,21,No
,49,j6jk395wtj,conventional,,request,window,5,conventional,,No,Female,Yes,5,21,No
421.685,50,j6jk395wtj,conventional,0,request,window,5,conventional,Request,Yes,Female,Yes,5,21,No
,51,j6jk395wtj,conventional,,request,door,5,conventional,,No,Female,Yes,5,21,No
455.325,52,j6jk395wtj,conventional,0,request,door,5,conventional,Request,Yes,Female,Yes,5,21,No
,53,j6jk395wtj,conventional,,question,piano,19,conventional,,No,Female,Yes,5,21,No
730.085,54,j6jk395wtj,conventional,1,question,piano,19,conventional,Non-Request,No,Female,Yes,5,21,No
,55,j6jk395wtj,conventional,,request,piano,19,conventional,,No,Female,Yes,5,21,No
467.565,56,j6jk395wtj,conventional,1,request,piano,19,conventional,Non-Request,Yes,Female,Yes,5,21,No
,57,j6jk395wtj,conventional,,question,box,19,conventional,,No,Female,Yes,5,21,No
1829.17,58,j6jk395wtj,conventional,1,question,box,19,conventional,Non-Request,No,Female,Yes,5,21,No
,59,j6jk395wtj,conventional,,request,door,19,conventional,,No,Female,Yes,5,21,No
456.17,60,j6jk395wtj,conventional,0,request,door,19,conventional,Request,No,Female,Yes,5,21,No
,61,j6jk395wtj,conventional,,request,box,19,conventional,,No,Female,Yes,5,21,No
879.245,62,j6jk395wtj,conventional,1,request,box,19,conventional,Non-Request,Yes,Female,Yes,5,21,No
,63,j6jk395wtj,conventional,,request,temp,19,conventional,,No,Female,Yes,5,21,No
252.305,64,j6jk395wtj,conventional,1,request,temp,19,conventional,Non-Request,No,Female,Yes,5,21,No
,65,j6jk395wtj,conventional,,request,Spanish,19,conventional,,No,Female,Yes,5,21,No
371.08,66,j6jk395wtj,conventional,1,request,Spanish,19,conventional,Non-Request,No,Female,Yes,5,21,No
,67,j6jk395wtj,conventional,,question,door,19,conventional,,No,Female,Yes,5,21,No
1022.35,68,j6jk395wtj,conventional,0,question,door,19,conventional,Request,Yes,Female,Yes,5,21,No
,69,j6jk395wtj,conventional,,request,window,19,conventional,,No,Female,Yes,5,21,No
662.73,70,j6jk395wtj,conventional,1,request,window,19,conventional,Non-Request,No,Female,Yes,5,21,No
,71,j6jk395wtj,conventional,,question,window,19,conventional,,No,Female,Yes,5,21,No
487.295,72,j6jk395wtj,conventional,0,question,window,19,conventional,Request,Yes,Female,Yes,5,21,No
,73,j6jk395wtj,conventional,,question,temp,19,conventional,,No,Female,Yes,5,21,No
694.67,74,j6jk395wtj,conventional,1,question,temp,19,conventional,Non-Request,Yes,Female,Yes,5,21,No
,75,j6jk395wtj,conventional,,question,Spanish,19,conventional,,No,Female,Yes,5,21,No
638.305,76,j6jk395wtj,conventional,0,question,Spanish,19,conventional,Request,Yes,Female,Yes,5,21,No
,77,j6jk395wtj,conventional,,request,temp,22,conventional,,No,Female,Yes,5,21,No
1303.375,78,j6jk395wtj,conventional,0,request,temp,22,conventional,Request,No,Female,Yes,5,21,No
,79,j6jk395wtj,conventional,,question,piano,22,conventional,,No,Female,Yes,5,21,No
26945.985,80,j6jk395wtj,conventional,0,question,piano,22,conventional,Request,No,Female,Yes,5,21,No
,81,j6jk395wtj,conventional,,request,box,22,conventional,,No,Female,Yes,5,21,No
827.835,82,j6jk395wtj,conventional,1,request,box,22,conventional,Non-Request,No,Female,Yes,5,21,No
,83,j6jk395wtj,conventional,,question,temp,22,conventional,,No,Female,Yes,5,21,No
615.775,84,j6jk395wtj,conventional,1,question,temp,22,conventional,Non-Request,Yes,Female,Yes,5,21,No
,85,j6jk395wtj,conventional,,question,Spanish,22,conventional,,No,Female,Yes,5,21,No
661.83,86,j6jk395wtj,conventional,1,question,Spanish,22,conventional,Non-Request,No,Female,Yes,5,21,No
,87,j6jk395wtj,conventional,,request,window,22,conventional,,No,Female,Yes,5,21,No
367.03,88,j6jk395wtj,conventional,0,request,window,22,conventional,Request,No,Female,Yes,5,21,No
,89,j6jk395wtj,conventional,,question,window,22,conventional,,No,Female,Yes,5,21,No
430.53,90,j6jk395wtj,conventional,1,question,window,22,conventional,Non-Request,Yes,Female,Yes,5,21,No
,91,j6jk395wtj,conventional,,question,door,22,conventional,,No,Female,Yes,5,21,No
423.65,92,j6jk395wtj,conventional,1,question,door,22,conventional,Non-Request,No,Female,Yes,5,21,No
,93,j6jk395wtj,conventional,,request,piano,22,conventional,,No,Female,Yes,5,21,No
172.185,94,j6jk395wtj,conventional,1,request,piano,22,conventional,Non-Request,Yes,Female,Yes,5,21,No
,95,j6jk395wtj,conventional,,request,Spanish,22,conventional,,No,Female,Yes,5,21,No
827.555,96,j6jk395wtj,conventional,0,request,Spanish,22,conventional,Request,Yes,Female,Yes,5,21,No
,97,j6jk395wtj,conventional,,question,box,22,conventional,,No,Female,Yes,5,21,No
413.605,98,j6jk395wtj,conventional,1,question,box,22,conventional,Non-Request,Yes,Female,Yes,5,21,No
,99,j6jk395wtj,conventional,,request,door,22,conventional,,No,Female,Yes,5,21,No
502.885,100,j6jk395wtj,conventional,0,request,door,22,conventional,Request,Yes,Female,Yes,5,21,No
,101,j6jk395wtj,conventional,,question,piano,20,conventional,,No,Female,Yes,5,21,No
470.205,102,j6jk395wtj,conventional,1,question,piano,20,conventional,Non-Request,No,Female,Yes,5,21,No
,103,j6jk395wtj,conventional,,question,window,20,conventional,,No,Female,Yes,5,21,No
517.44,104,j6jk395wtj,conventional,0,question,window,20,conventional,Request,No,Female,Yes,5,21,No
,105,j6jk395wtj,conventional,,request,temp,20,conventional,,No,Female,Yes,5,21,No
469.7749999,106,j6jk395wtj,conventional,1,request,temp,20,conventional,Non-Request,No,Female,Yes,5,21,No
,107,j6jk395wtj,conventional,,request,piano,20,conventional,,No,Female,Yes,5,21,No
2331.985,108,j6jk395wtj,conventional,1,request,piano,20,conventional,Non-Request,Yes,Female,Yes,5,21,No
,109,j6jk395wtj,conventional,,request,window,20,conventional,,No,Female,Yes,5,21,No
632.945,110,j6jk395wtj,conventional,0,request,window,20,conventional,Request,Yes,Female,Yes,5,21,No
,111,j6jk395wtj,conventional,,request,Spanish,20,conventional,,No,Female,Yes,5,21,No
452.165,112,j6jk395wtj,conventional,1,request,Spanish,20,conventional,Non-Request,No,Female,Yes,5,21,No
,113,j6jk395wtj,conventional,,request,door,20,conventional,,No,Female,Yes,5,21,No
870.885,114,j6jk395wtj,conventional,0,request,door,20,conventional,Request,No,Female,Yes,5,21,No
,115,j6jk395wtj,conventional,,request,box,20,conventional,,No,Female,Yes,5,21,No
422.97,116,j6jk395wtj,conventional,0,request,box,20,conventional,Request,No,Female,Yes,5,21,No
,117,j6jk395wtj,conventional,,question,door,20,conventional,,No,Female,Yes,5,21,No
309.855,118,j6jk395wtj,conventional,0,question,door,20,conventional,Request,Yes,Female,Yes,5,21,No
,119,j6jk395wtj,conventional,,question,box,20,conventional,,No,Female,Yes,5,21,No
526.555,120,j6jk395wtj,conventional,1,question,box,20,conventional,Non-Request,Yes,Female,Yes,5,21,No
,121,j6jk395wtj,conventional,,question,temp,20,conventional,,No,Female,Yes,5,21,No
428.75,122,j6jk395wtj,conventional,0,question,temp,20,conventional,Request,Yes,Female,Yes,5,21,No
,123,j6jk395wtj,conventional,,question,Spanish,20,conventional,,No,Female,Yes,5,21,No
434,124,j6jk395wtj,conventional,0,question,Spanish,20,conventional,Request,Yes,Female,Yes,5,21,No
,125,j6jk395wtj,conventional,,request,temp,3,conventional,,No,Female,Yes,5,21,No
978.575,126,j6jk395wtj,conventional,0,request,temp,3,conventional,Request,No,Female,Yes,5,21,No
,127,j6jk395wtj,conventional,,request,door,3,conventional,,No,Female,Yes,5,21,No
3989.085,128,j6jk395wtj,conventional,0,request,door,3,conventional,Request,No,Female,Yes,5,21,No
,129,j6jk395wtj,conventional,,question,window,3,conventional,,No,Female,Yes,5,21,No
429.98,130,j6jk395wtj,conventional,0,question,window,3,conventional,Request,No,Female,Yes,5,21,No
,131,j6jk395wtj,conventional,,question,door,3,conventional,,No,Female,Yes,5,21,No
467.18,132,j6jk395wtj,conventional,1,question,door,3,conventional,Non-Request,Yes,Female,Yes,5,21,No
,133,j6jk395wtj,conventional,,request,piano,3,conventional,,No,Female,Yes,5,21,No
406.015,134,j6jk395wtj,conventional,1,request,piano,3,conventional,Non-Request,No,Female,Yes,5,21,No
,135,j6jk395wtj,conventional,,request,box,3,conventional,,No,Female,Yes,5,21,No
602.175,136,j6jk395wtj,conventional,0,request,box,3,conventional,Request,No,Female,Yes,5,21,No
,137,j6jk395wtj,conventional,,question,Spanish,3,conventional,,No,Female,Yes,5,21,No
1101.395,138,j6jk395wtj,conventional,0,question,Spanish,3,conventional,Request,No,Female,Yes,5,21,No
,139,j6jk395wtj,conventional,,question,piano,3,conventional,,No,Female,Yes,5,21,No
672.945,140,j6jk395wtj,conventional,1,question,piano,3,conventional,Non-Request,Yes,Female,Yes,5,21,No
,141,j6jk395wtj,conventional,,question,temp,3,conventional,,No,Female,Yes,5,21,No
674.135,142,j6jk395wtj,conventional,1,question,temp,3,conventional,Non-Request,Yes,Female,Yes,5,21,No
,143,j6jk395wtj,conventional,,question,box,3,conventional,,No,Female,Yes,5,21,No
1203.2,144,j6jk395wtj,conventional,0,question,box,3,conventional,Request,Yes,Female,Yes,5,21,No
,145,j6jk395wtj,conventional,,request,Spanish,3,conventional,,No,Female,Yes,5,21,No
1544.105,146,j6jk395wtj,conventional,1,request,Spanish,3,conventional,Non-Request,Yes,Female,Yes,5,21,No
,147,j6jk395wtj,conventional,,request,window,3,conventional,,No,Female,Yes,5,21,No
1512.34,148,j6jk395wtj,conventional,0,request,window,3,conventional,Request,Yes,Female,Yes,5,21,No
,149,j6jk395wtj,conventional,,request,Spanish,25,conventional,,No,Female,Yes,5,21,No
2020.085,150,j6jk395wtj,conventional,1,request,Spanish,25,conventional,Non-Request,No,Female,Yes,5,21,No
,151,j6jk395wtj,conventional,,request,piano,25,conventional,,No,Female,Yes,5,21,No
842.6499999,152,j6jk395wtj,conventional,1,request,piano,25,conventional,Non-Request,No,Female,Yes,5,21,No
,153,j6jk395wtj,conventional,,request,window,25,conventional,,No,Female,Yes,5,21,No
708.6,154,j6jk395wtj,conventional,0,request,window,25,conventional,Request,No,Female,Yes,5,21,No
,155,j6jk395wtj,conventional,,question,Spanish,25,conventional,,No,Female,Yes,5,21,No
1588.69,156,j6jk395wtj,conventional,1,question,Spanish,25,conventional,Non-Request,Yes,Female,Yes,5,21,No
,157,j6jk395wtj,conventional,,request,door,25,conventional,,No,Female,Yes,5,21,No
1396.9,158,j6jk395wtj,conventional,0,request,door,25,conventional,Request,No,Female,Yes,5,21,No
,159,j6jk395wtj,conventional,,question,temp,25,conventional,,No,Female,Yes,5,21,No
1021.755,160,j6jk395wtj,conventional,0,question,temp,25,conventional,Request,No,Female,Yes,5,21,No
,161,j6jk395wtj,conventional,,question,piano,25,conventional,,No,Female,Yes,5,21,No
1040.055,162,j6jk395wtj,conventional,0,question,piano,25,conventional,Request,Yes,Female,Yes,5,21,No
,163,j6jk395wtj,conventional,,question,window,25,conventional,,No,Female,Yes,5,21,No
493.915,164,j6jk395wtj,conventional,1,question,window,25,conventional,Non-Request,Yes,Female,Yes,5,21,No
,165,j6jk395wtj,conventional,,question,door,25,conventional,,No,Female,Yes,5,21,No
1393.94,166,j6jk395wtj,conventional,0,question,door,25,conventional,Request,Yes,Female,Yes,5,21,No
,167,j6jk395wtj,conventional,,question,box,25,conventional,,No,Female,Yes,5,21,No
460.23,168,j6jk395wtj,conventional,1,question,box,25,conventional,Non-Request,No,Female,Yes,5,21,No
,169,j6jk395wtj,conventional,,request,box,25,conventional,,No,Female,Yes,5,21,No
492.51,170,j6jk395wtj,conventional,0,request,box,25,conventional,Request,Yes,Female,Yes,5,21,No
,171,j6jk395wtj,conventional,,request,temp,25,conventional,,No,Female,Yes,5,21,No
424.99,172,j6jk395wtj,conventional,0,request,temp,25,conventional,Request,Yes,Female,Yes,5,21,No
,173,j6jk395wtj,conventional,,request,window,9,conventional,,No,Female,Yes,5,21,No
830.945,174,j6jk395wtj,conventional,0,request,window,9,conventional,Request,No,Female,Yes,5,21,No
,175,j6jk395wtj,conventional,,request,door,9,conventional,,No,Female,Yes,5,21,No
330.595,176,j6jk395wtj,conventional,0,request,door,9,conventional,Request,No,Female,Yes,5,21,No
,177,j6jk395wtj,conventional,,request,piano,9,conventional,,No,Female,Yes,5,21,No
1080.015,178,j6jk395wtj,conventional,1,request,piano,9,conventional,Non-Request,No,Female,Yes,5,21,No
,179,j6jk395wtj,conventional,,question,door,9,conventional,,No,Female,Yes,5,21,No
442.81,180,j6jk395wtj,conventional,1,question,door,9,conventional,Non-Request,Yes,Female,Yes,5,21,No
,181,j6jk395wtj,conventional,,request,box,9,conventional,,No,Female,Yes,5,21,No
284.955,182,j6jk395wtj,conventional,1,request,box,9,conventional,Non-Request,No,Female,Yes,5,21,No
,183,j6jk395wtj,conventional,,question,box,9,conventional,,No,Female,Yes,5,21,No
1787.065,184,j6jk395wtj,conventional,0,question,box,9,conventional,Request,Yes,Female,Yes,5,21,No
,185,j6jk395wtj,conventional,,request,temp,9,conventional,,No,Female,Yes,5,21,No
1633,186,j6jk395wtj,conventional,1,request,temp,9,conventional,Non-Request,No,Female,Yes,5,21,No
,187,j6jk395wtj,conventional,,question,piano,9,conventional,,No,Female,Yes,5,21,No
440.47,188,j6jk395wtj,conventional,1,question,piano,9,conventional,Non-Request,Yes,Female,Yes,5,21,No
,189,j6jk395wtj,conventional,,request,Spanish,9,conventional,,No,Female,Yes,5,21,No
222.76,190,j6jk395wtj,conventional,1,request,Spanish,9,conventional,Non-Request,No,Female,Yes,5,21,No
,191,j6jk395wtj,conventional,,question,Spanish,9,conventional,,No,Female,Yes,5,21,No
863.645,192,j6jk395wtj,conventional,1,question,Spanish,9,conventional,Non-Request,Yes,Female,Yes,5,21,No
,193,j6jk395wtj,conventional,,question,temp,9,conventional,,No,Female,Yes,5,21,No
445.835,194,j6jk395wtj,conventional,0,question,temp,9,conventional,Request,Yes,Female,Yes,5,21,No
,195,j6jk395wtj,conventional,,question,window,9,conventional,,No,Female,Yes,5,21,No
205.1,196,j6jk395wtj,conventional,0,question,window,9,conventional,Request,Yes,Female,Yes,5,21,No
,197,j6jk395wtj,conventional,,question,Spanish,2,conventional,,No,Female,Yes,5,21,No
1100.85,198,j6jk395wtj,conventional,1,question,Spanish,2,conventional,Non-Request,No,Female,Yes,5,21,No
,199,j6jk395wtj,conventional,,question,box,2,conventional,,No,Female,Yes,5,21,No
719.39,200,j6jk395wtj,conventional,1,question,box,2,conventional,Non-Request,No,Female,Yes,5,21,No
,201,j6jk395wtj,conventional,,question,piano,2,conventional,,No,Female,Yes,5,21,No
478.76,202,j6jk395wtj,conventional,1,question,piano,2,conventional,Non-Request,No,Female,Yes,5,21,No
,203,j6jk395wtj,conventional,,request,door,2,conventional,,No,Female,Yes,5,21,No
641.66,204,j6jk395wtj,conventional,0,request,door,2,conventional,Request,No,Female,Yes,5,21,No
,205,j6jk395wtj,conventional,,question,window,2,conventional,,No,Female,Yes,5,21,No
438.84,206,j6jk395wtj,conventional,0,question,window,2,conventional,Request,No,Female,Yes,5,21,No
,207,j6jk395wtj,conventional,,request,Spanish,2,conventional,,No,Female,Yes,5,21,No
517.47,208,j6jk395wtj,conventional,1,request,Spanish,2,conventional,Non-Request,Yes,Female,Yes,5,21,No
,209,j6jk395wtj,conventional,,request,piano,2,conventional,,No,Female,Yes,5,21,No
219.375,210,j6jk395wtj,conventional,1,request,piano,2,conventional,Non-Request,Yes,Female,Yes,5,21,No
,211,j6jk395wtj,conventional,,request,temp,2,conventional,,No,Female,Yes,5,21,No
673.8,212,j6jk395wtj,conventional,1,request,temp,2,conventional,Non-Request,No,Female,Yes,5,21,No
,213,j6jk395wtj,conventional,,question,temp,2,conventional,,No,Female,Yes,5,21,No
457.41,214,j6jk395wtj,conventional,0,question,temp,2,conventional,Request,Yes,Female,Yes,5,21,No
,215,j6jk395wtj,conventional,,request,window,2,conventional,,No,Female,Yes,5,21,No
330.26,216,j6jk395wtj,conventional,0,request,window,2,conventional,Request,Yes,Female,Yes,5,21,No
,217,j6jk395wtj,conventional,,question,door,2,conventional,,No,Female,Yes,5,21,No
477.77,218,j6jk395wtj,conventional,1,question,door,2,conventional,Non-Request,Yes,Female,Yes,5,21,No
,219,j6jk395wtj,conventional,,request,box,2,conventional,,No,Female,Yes,5,21,No
737.295,220,j6jk395wtj,conventional,0,request,box,2,conventional,Request,Yes,Female,Yes,5,21,No
25094.855,221,j6jk395wtj,conventional,,,,,,,No,Female,Yes,5,21,No
13398.645,222,j6jk395wtj,conventional,,,,,,,No,Female,Yes,5,21,No
2165.875,223,j6jk395wtj,conventional,,,,,,,No,Female,Yes,5,21,No
16471.275,0,6j8b3x49wv,conventional,,,,,,,No,Female,Yes,4,20,No
6023.02,1,6j8b3x49wv,conventional,,,,,,,No,Female,Yes,4,20,No
2024.385,2,6j8b3x49wv,conventional,,,,,,,No,Female,Yes,4,20,No
4688.175,3,6j8b3x49wv,conventional,2,,,,,,No,Female,Yes,4,20,No
20297.575,4,6j8b3x49wv,conventional,,,,,,,No,Female,Yes,4,20,No
,5,6j8b3x49wv,conventional,,question,Spanish,17,conventional,,No,Female,Yes,4,20,No
5615.23,6,6j8b3x49wv,conventional,0,question,Spanish,17,conventional,Request,No,Female,Yes,4,20,No
,7,6j8b3x49wv,conventional,,request,Spanish,17,conventional,,No,Female,Yes,4,20,No
1977.835,8,6j8b3x49wv,conventional,0,request,Spanish,17,conventional,Request,Yes,Female,Yes,4,20,No
,9,6j8b3x49wv,conventional,,question,box,17,conventional,,No,Female,Yes,4,20,No
1906.01,10,6j8b3x49wv,conventional,0,question,box,17,conventional,Request,No,Female,Yes,4,20,No
,11,6j8b3x49wv,conventional,,request,box,17,conventional,,No,Female,Yes,4,20,No
400.7250001,12,6j8b3x49wv,conventional,0,request,box,17,conventional,Request,Yes,Female,Yes,4,20,No
,13,6j8b3x49wv,conventional,,request,temp,17,conventional,,No,Female,Yes,4,20,No
1239.635,14,6j8b3x49wv,conventional,0,request,temp,17,conventional,Request,No,Female,Yes,4,20,No
,15,6j8b3x49wv,conventional,,question,piano,17,conventional,,No,Female,Yes,4,20,No
2168.115,16,6j8b3x49wv,conventional,1,question,piano,17,conventional,Non-Request,No,Female,Yes,4,20,No
,17,6j8b3x49wv,conventional,,question,door,17,conventional,,No,Female,Yes,4,20,No
1716.175,18,6j8b3x49wv,conventional,0,question,door,17,conventional,Request,No,Female,Yes,4,20,No
,19,6j8b3x49wv,conventional,,request,window,17,conventional,,No,Female,Yes,4,20,No
1371.21,20,6j8b3x49wv,conventional,0,request,window,17,conventional,Request,No,Female,Yes,4,20,No
,21,6j8b3x49wv,conventional,,request,door,17,conventional,,No,Female,Yes,4,20,No
382.8799999,22,6j8b3x49wv,conventional,0,request,door,17,conventional,Request,Yes,Female,Yes,4,20,No
,23,6j8b3x49wv,conventional,,request,piano,17,conventional,,No,Female,Yes,4,20,No
488.075,24,6j8b3x49wv,conventional,1,request,piano,17,conventional,Non-Request,Yes,Female,Yes,4,20,No
,25,6j8b3x49wv,conventional,,question,window,17,conventional,,No,Female,Yes,4,20,No
1302.88,26,6j8b3x49wv,conventional,0,question,window,17,conventional,Request,Yes,Female,Yes,4,20,No
,27,6j8b3x49wv,conventional,,question,temp,17,conventional,,No,Female,Yes,4,20,No
777.075,28,6j8b3x49wv,conventional,0,question,temp,17,conventional,Request,Yes,Female,Yes,4,20,No
,29,6j8b3x49wv,conventional,,question,temp,18,conventional,,No,Female,Yes,4,20,No
406.325,30,6j8b3x49wv,conventional,0,question,temp,18,conventional,Request,No,Female,Yes,4,20,No
,31,6j8b3x49wv,conventional,,question,box,18,conventional,,No,Female,Yes,4,20,No
795.225,32,6j8b3x49wv,conventional,0,question,box,18,conventional,Request,No,Female,Yes,4,20,No
,33,6j8b3x49wv,conventional,,request,box,18,conventional,,No,Female,Yes,4,20,No
636.265,34,6j8b3x49wv,conventional,0,request,box,18,conventional,Request,Yes,Female,Yes,4,20,No
,35,6j8b3x49wv,conventional,,question,piano,18,conventional,,No,Female,Yes,4,20,No
560.9650001,36,6j8b3x49wv,conventional,1,question,piano,18,conventional,Non-Request,No,Female,Yes,4,20,No
,37,6j8b3x49wv,conventional,,request,temp,18,conventional,,No,Female,Yes,4,20,No
649.705,38,6j8b3x49wv,conventional,0,request,temp,18,conventional,Request,Yes,Female,Yes,4,20,No
,39,6j8b3x49wv,conventional,,request,door,18,conventional,,No,Female,Yes,4,20,No
390.8000001,40,6j8b3x49wv,conventional,0,request,door,18,conventional,Request,No,Female,Yes,4,20,No
,41,6j8b3x49wv,conventional,,request,Spanish,18,conventional,,No,Female,Yes,4,20,No
1656.655,42,6j8b3x49wv,conventional,1,request,Spanish,18,conventional,Non-Request,No,Female,Yes,4,20,No
,43,6j8b3x49wv,conventional,,question,door,18,conventional,,No,Female,Yes,4,20,No
1556.73,44,6j8b3x49wv,conventional,0,question,door,18,conventional,Request,Yes,Female,Yes,4,20,No
,45,6j8b3x49wv,conventional,,question,window,18,conventional,,No,Female,Yes,4,20,No
902.545,46,6j8b3x49wv,conventional,0,question,window,18,conventional,Request,No,Female,Yes,4,20,No
,47,6j8b3x49wv,conventional,,request,window,18,conventional,,No,Female,Yes,4,20,No
430.4549999,48,6j8b3x49wv,conventional,0,request,window,18,conventional,Request,Yes,Female,Yes,4,20,No
,49,6j8b3x49wv,conventional,,question,Spanish,18,conventional,,No,Female,Yes,4,20,No
888.2800001,50,6j8b3x49wv,conventional,1,question,Spanish,18,conventional,Non-Request,Yes,Female,Yes,4,20,No
,51,6j8b3x49wv,conventional,,request,piano,18,conventional,,No,Female,Yes,4,20,No
394.58,52,6j8b3x49wv,conventional,0,request,piano,18,conventional,Request,Yes,Female,Yes,4,20,No
,53,6j8b3x49wv,conventional,,question,temp,3,conventional,,No,Female,Yes,4,20,No
1591.625,54,6j8b3x49wv,conventional,0,question,temp,3,conventional,Request,No,Female,Yes,4,20,No
,55,6j8b3x49wv,conventional,,request,door,3,conventional,,No,Female,Yes,4,20,No
2433.675,56,6j8b3x49wv,conventional,1,request,door,3,conventional,Non-Request,No,Female,Yes,4,20,No
,57,6j8b3x49wv,conventional,,question,piano,3,conventional,,No,Female,Yes,4,20,No
1350.395,58,6j8b3x49wv,conventional,1,question,piano,3,conventional,Non-Request,No,Female,Yes,4,20,No
,59,6j8b3x49wv,conventional,,request,Spanish,3,conventional,,No,Female,Yes,4,20,No
657.625,60,6j8b3x49wv,conventional,1,request,Spanish,3,conventional,Non-Request,No,Female,Yes,4,20,No
,61,6j8b3x49wv,conventional,,question,box,3,conventional,,No,Female,Yes,4,20,No
712.865,62,6j8b3x49wv,conventional,0,question,box,3,conventional,Request,No,Female,Yes,4,20,No
,63,6j8b3x49wv,conventional,,request,window,3,conventional,,No,Female,Yes,4,20,No
1954.06,64,6j8b3x49wv,conventional,1,request,window,3,conventional,Non-Request,No,Female,Yes,4,20,No
,65,6j8b3x49wv,conventional,,request,piano,3,conventional,,No,Female,Yes,4,20,No
346.01,66,6j8b3x49wv,conventional,0,request,piano,3,conventional,Request,Yes,Female,Yes,4,20,No
,67,6j8b3x49wv,conventional,,request,box,3,conventional,,No,Female,Yes,4,20,No
1183.535,68,6j8b3x49wv,conventional,0,request,box,3,conventional,Request,Yes,Female,Yes,4,20,No
,69,6j8b3x49wv,conventional,,request,temp,3,conventional,,No,Female,Yes,4,20,No
477.785,70,6j8b3x49wv,conventional,0,request,temp,3,conventional,Request,Yes,Female,Yes,4,20,No
,71,6j8b3x49wv,conventional,,question,Spanish,3,conventional,,No,Female,Yes,4,20,No
564.03,72,6j8b3x49wv,conventional,1,question,Spanish,3,conventional,Non-Request,Yes,Female,Yes,4,20,No
,73,6j8b3x49wv,conventional,,question,window,3,conventional,,No,Female,Yes,4,20,No
802.78,74,6j8b3x49wv,conventional,0,question,window,3,conventional,Request,Yes,Female,Yes,4,20,No
,75,6j8b3x49wv,conventional,,question,door,3,conventional,,No,Female,Yes,4,20,No
955.4399999,76,6j8b3x49wv,conventional,0,question,door,3,conventional,Request,Yes,Female,Yes,4,20,No
,77,6j8b3x49wv,conventional,,request,box,25,conventional,,No,Female,Yes,4,20,No
301.55,78,6j8b3x49wv,conventional,0,request,box,25,conventional,Request,No,Female,Yes,4,20,No
,79,6j8b3x49wv,conventional,,question,Spanish,25,conventional,,No,Female,Yes,4,20,No
185.34,80,6j8b3x49wv,conventional,0,question,Spanish,25,conventional,Request,No,Female,Yes,4,20,No
,81,6j8b3x49wv,conventional,,request,window,25,conventional,,No,Female,Yes,4,20,No
636.7949999,82,6j8b3x49wv,conventional,1,request,window,25,conventional,Non-Request,No,Female,Yes,4,20,No
,83,6j8b3x49wv,conventional,,request,door,25,conventional,,No,Female,Yes,4,20,No
430.1100001,84,6j8b3x49wv,conventional,1,request,door,25,conventional,Non-Request,No,Female,Yes,4,20,No
,85,6j8b3x49wv,conventional,,question,window,25,conventional,,No,Female,Yes,4,20,No
1430.4,86,6j8b3x49wv,conventional,1,question,window,25,conventional,Non-Request,Yes,Female,Yes,4,20,No
,87,6j8b3x49wv,conventional,,request,Spanish,25,conventional,,No,Female,Yes,4,20,No
568.545,88,6j8b3x49wv,conventional,0,request,Spanish,25,conventional,Request,Yes,Female,Yes,4,20,No
,89,6j8b3x49wv,conventional,,question,box,25,conventional,,No,Female,Yes,4,20,No
562.5400001,90,6j8b3x49wv,conventional,1,question,box,25,conventional,Non-Request,Yes,Female,Yes,4,20,No
,91,6j8b3x49wv,conventional,,request,piano,25,conventional,,No,Female,Yes,4,20,No
1035.96,92,6j8b3x49wv,conventional,1,request,piano,25,conventional,Non-Request,No,Female,Yes,4,20,No
,93,6j8b3x49wv,conventional,,request,temp,25,conventional,,No,Female,Yes,4,20,No
1310.835,94,6j8b3x49wv,conventional,0,request,temp,25,conventional,Request,No,Female,Yes,4,20,No
,95,6j8b3x49wv,conventional,,question,piano,25,conventional,,No,Female,Yes,4,20,No
1173.83,96,6j8b3x49wv,conventional,1,question,piano,25,conventional,Non-Request,Yes,Female,Yes,4,20,No
,97,6j8b3x49wv,conventional,,question,temp,25,conventional,,No,Female,Yes,4,20,No
542.39,98,6j8b3x49wv,conventional,0,question,temp,25,conventional,Request,Yes,Female,Yes,4,20,No
,99,6j8b3x49wv,conventional,,question,door,25,conventional,,No,Female,Yes,4,20,No
463.63,100,6j8b3x49wv,conventional,0,question,door,25,conventional,Request,Yes,Female,Yes,4,20,No
,101,6j8b3x49wv,conventional,,request,window,21,conventional,,No,Female,Yes,4,20,No
444.75,102,6j8b3x49wv,conventional,0,request,window,21,conventional,Request,No,Female,Yes,4,20,No
,103,6j8b3x49wv,conventional,,question,piano,21,conventional,,No,Female,Yes,4,20,No
261.24,104,6j8b3x49wv,conventional,0,question,piano,21,conventional,Request,No,Female,Yes,4,20,No
,105,6j8b3x49wv,conventional,,request,temp,21,conventional,,No,Female,Yes,4,20,No
349.9899999,106,6j8b3x49wv,conventional,0,request,temp,21,conventional,Request,No,Female,Yes,4,20,No
,107,6j8b3x49wv,conventional,,question,window,21,conventional,,No,Female,Yes,4,20,No
994.9449999,108,6j8b3x49wv,conventional,0,question,window,21,conventional,Request,Yes,Female,Yes,4,20,No
,109,6j8b3x49wv,conventional,,request,Spanish,21,conventional,,No,Female,Yes,4,20,No
1721.685,110,6j8b3x49wv,conventional,0,request,Spanish,21,conventional,Request,No,Female,Yes,4,20,No
,111,6j8b3x49wv,conventional,,question,temp,21,conventional,,No,Female,Yes,4,20,No
642.8299999,112,6j8b3x49wv,conventional,0,question,temp,21,conventional,Request,Yes,Female,Yes,4,20,No
,113,6j8b3x49wv,conventional,,request,box,21,conventional,,No,Female,Yes,4,20,No
619.66,114,6j8b3x49wv,conventional,0,request,box,21,conventional,Request,No,Female,Yes,4,20,No
,115,6j8b3x49wv,conventional,,request,piano,21,conventional,,No,Female,Yes,4,20,No
2551.205,116,6j8b3x49wv,conventional,1,request,piano,21,conventional,Non-Request,Yes,Female,Yes,4,20,No
,117,6j8b3x49wv,conventional,,question,Spanish,21,conventional,,No,Female,Yes,4,20,No
1356.37,118,6j8b3x49wv,conventional,0,question,Spanish,21,conventional,Request,Yes,Female,Yes,4,20,No
,119,6j8b3x49wv,conventional,,question,box,21,conventional,,No,Female,Yes,4,20,No
775.515,120,6j8b3x49wv,conventional,0,question,box,21,conventional,Request,Yes,Female,Yes,4,20,No
,121,6j8b3x49wv,conventional,,question,door,21,conventional,,No,Female,Yes,4,20,No
695.5350001,122,6j8b3x49wv,conventional,0,question,door,21,conventional,Request,No,Female,Yes,4,20,No
,123,6j8b3x49wv,conventional,,request,door,21,conventional,,No,Female,Yes,4,20,No
4654.815,124,6j8b3x49wv,conventional,0,request,door,21,conventional,Request,Yes,Female,Yes,4,20,No
,125,6j8b3x49wv,conventional,,request,box,24,conventional,,No,Female,Yes,4,20,No
1310.85,126,6j8b3x49wv,conventional,0,request,box,24,conventional,Request,No,Female,Yes,4,20,No
,127,6j8b3x49wv,conventional,,question,box,24,conventional,,No,Female,Yes,4,20,No
840.675,128,6j8b3x49wv,conventional,0,question,box,24,conventional,Request,Yes,Female,Yes,4,20,No
,129,6j8b3x49wv,conventional,,question,piano,24,conventional,,No,Female,Yes,4,20,No
741.015,130,6j8b3x49wv,conventional,0,question,piano,24,conventional,Request,No,Female,Yes,4,20,No
,131,6j8b3x49wv,conventional,,question,door,24,conventional,,No,Female,Yes,4,20,No
631.055,132,6j8b3x49wv,conventional,0,question,door,24,conventional,Request,No,Female,Yes,4,20,No
,133,6j8b3x49wv,conventional,,request,door,24,conventional,,No,Female,Yes,4,20,No
2597.71,134,6j8b3x49wv,conventional,0,request,door,24,conventional,Request,Yes,Female,Yes,4,20,No
,135,6j8b3x49wv,conventional,,request,temp,24,conventional,,No,Female,Yes,4,20,No
4991.875,136,6j8b3x49wv,conventional,0,request,temp,24,conventional,Request,No,Female,Yes,4,20,No
,137,6j8b3x49wv,conventional,,request,window,24,conventional,,No,Female,Yes,4,20,No
5191.405,138,6j8b3x49wv,conventional,0,request,window,24,conventional,Request,No,Female,Yes,4,20,No
,139,6j8b3x49wv,conventional,,question,window,24,conventional,,No,Female,Yes,4,20,No
1446.76,140,6j8b3x49wv,conventional,0,question,window,24,conventional,Request,Yes,Female,Yes,4,20,No
,141,6j8b3x49wv,conventional,,question,temp,24,conventional,,No,Female,Yes,4,20,No
1792.13,142,6j8b3x49wv,conventional,0,question,temp,24,conventional,Request,Yes,Female,Yes,4,20,No
,143,6j8b3x49wv,conventional,,request,piano,24,conventional,,No,Female,Yes,4,20,No
956.715,144,6j8b3x49wv,conventional,0,request,piano,24,conventional,Request,Yes,Female,Yes,4,20,No
,145,6j8b3x49wv,conventional,,question,Spanish,24,conventional,,No,Female,Yes,4,20,No
1873.845,146,6j8b3x49wv,conventional,1,question,Spanish,24,conventional,Non-Request,No,Female,Yes,4,20,No
,147,6j8b3x49wv,conventional,,request,Spanish,24,conventional,,No,Female,Yes,4,20,No
1409.685,148,6j8b3x49wv,conventional,0,request,Spanish,24,conventional,Request,Yes,Female,Yes,4,20,No
,149,6j8b3x49wv,conventional,,question,Spanish,8,conventional,,No,Female,Yes,4,20,No
1048.605,150,6j8b3x49wv,conventional,0,question,Spanish,8,conventional,Request,No,Female,Yes,4,20,No
,151,6j8b3x49wv,conventional,,request,door,8,conventional,,No,Female,Yes,4,20,No
1008.02,152,6j8b3x49wv,conventional,0,request,door,8,conventional,Request,No,Female,Yes,4,20,No
,153,6j8b3x49wv,conventional,,question,window,8,conventional,,No,Female,Yes,4,20,No
1104.485,154,6j8b3x49wv,conventional,0,question,window,8,conventional,Request,No,Female,Yes,4,20,No
,155,6j8b3x49wv,conventional,,request,box,8,conventional,,No,Female,Yes,4,20,No
1569.315,156,6j8b3x49wv,conventional,0,request,box,8,conventional,Request,No,Female,Yes,4,20,No
,157,6j8b3x49wv,conventional,,request,window,8,conventional,,No,Female,Yes,4,20,No
3261.165,158,6j8b3x49wv,conventional,0,request,window,8,conventional,Request,Yes,Female,Yes,4,20,No
,159,6j8b3x49wv,conventional,,question,piano,8,conventional,,No,Female,Yes,4,20,No
2896.945,160,6j8b3x49wv,conventional,0,question,piano,8,conventional,Request,No,Female,Yes,4,20,No
,161,6j8b3x49wv,conventional,,question,box,8,conventional,,No,Female,Yes,4,20,No
1487.21,162,6j8b3x49wv,conventional,1,question,box,8,conventional,Non-Request,Yes,Female,Yes,4,20,No
,163,6j8b3x49wv,conventional,,request,temp,8,conventional,,No,Female,Yes,4,20,No
962.2549999,164,6j8b3x49wv,conventional,0,request,temp,8,conventional,Request,No,Female,Yes,4,20,No
,165,6j8b3x49wv,conventional,,question,door,8,conventional,,No,Female,Yes,4,20,No
815.87,166,6j8b3x49wv,conventional,0,question,door,8,conventional,Request,Yes,Female,Yes,4,20,No
,167,6j8b3x49wv,conventional,,request,Spanish,8,conventional,,No,Female,Yes,4,20,No
728.63,168,6j8b3x49wv,conventional,0,request,Spanish,8,conventional,Request,Yes,Female,Yes,4,20,No
,169,6j8b3x49wv,conventional,,question,temp,8,conventional,,No,Female,Yes,4,20,No
335.43,170,6j8b3x49wv,conventional,0,question,temp,8,conventional,Request,Yes,Female,Yes,4,20,No
,171,6j8b3x49wv,conventional,,request,piano,8,conventional,,No,Female,Yes,4,20,No
388.185,172,6j8b3x49wv,conventional,0,request,piano,8,conventional,Request,Yes,Female,Yes,4,20,No
,173,6j8b3x49wv,conventional,,request,window,20,conventional,,No,Female,Yes,4,20,No
6884.005,174,6j8b3x49wv,conventional,0,request,window,20,conventional,Request,No,Female,Yes,4,20,No
,175,6j8b3x49wv,conventional,,question,temp,20,conventional,,No,Female,Yes,4,20,No
528.775,176,6j8b3x49wv,conventional,0,question,temp,20,conventional,Request,No,Female,Yes,4,20,No
,177,6j8b3x49wv,conventional,,request,Spanish,20,conventional,,No,Female,Yes,4,20,No
252.02,178,6j8b3x49wv,conventional,0,request,Spanish,20,conventional,Request,No,Female,Yes,4,20,No
,179,6j8b3x49wv,conventional,,question,piano,20,conventional,,No,Female,Yes,4,20,No
998.895,180,6j8b3x49wv,conventional,0,question,piano,20,conventional,Request,No,Female,Yes,4,20,No
,181,6j8b3x49wv,conventional,,question,door,20,conventional,,No,Female,Yes,4,20,No
2198.37,182,6j8b3x49wv,conventional,0,question,door,20,conventional,Request,No,Female,Yes,4,20,No
,183,6j8b3x49wv,conventional,,request,door,20,conventional,,No,Female,Yes,4,20,No
3504.21,184,6j8b3x49wv,conventional,0,request,door,20,conventional,Request,Yes,Female,Yes,4,20,No
,185,6j8b3x49wv,conventional,,request,piano,20,conventional,,No,Female,Yes,4,20,No
3596.41,186,6j8b3x49wv,conventional,1,request,piano,20,conventional,Non-Request,Yes,Female,Yes,4,20,No
,187,6j8b3x49wv,conventional,,question,window,20,conventional,,No,Female,Yes,4,20,No
1339.24,188,6j8b3x49wv,conventional,1,question,window,20,conventional,Non-Request,Yes,Female,Yes,4,20,No
,189,6j8b3x49wv,conventional,,question,Spanish,20,conventional,,No,Female,Yes,4,20,No
1610.995,190,6j8b3x49wv,conventional,0,question,Spanish,20,conventional,Request,Yes,Female,Yes,4,20,No
,191,6j8b3x49wv,conventional,,request,temp,20,conventional,,No,Female,Yes,4,20,No
3198.23,192,6j8b3x49wv,conventional,0,request,temp,20,conventional,Request,Yes,Female,Yes,4,20,No
,193,6j8b3x49wv,conventional,,question,box,20,conventional,,No,Female,Yes,4,20,No
676.97,194,6j8b3x49wv,conventional,1,question,box,20,conventional,Non-Request,No,Female,Yes,4,20,No
,195,6j8b3x49wv,conventional,,request,box,20,conventional,,No,Female,Yes,4,20,No
269.1149999,196,6j8b3x49wv,conventional,0,request,box,20,conventional,Request,Yes,Female,Yes,4,20,No
,197,6j8b3x49wv,conventional,,request,box,19,conventional,,No,Female,Yes,4,20,No
460.3950001,198,6j8b3x49wv,conventional,0,request,box,19,conventional,Request,No,Female,Yes,4,20,No
,199,6j8b3x49wv,conventional,,question,window,19,conventional,,No,Female,Yes,4,20,No
683.05,200,6j8b3x49wv,conventional,0,question,window,19,conventional,Request,No,Female,Yes,4,20,No
,201,6j8b3x49wv,conventional,,request,door,19,conventional,,No,Female,Yes,4,20,No
910.055,202,6j8b3x49wv,conventional,1,request,door,19,conventional,Non-Request,No,Female,Yes,4,20,No
,203,6j8b3x49wv,conventional,,request,Spanish,19,conventional,,No,Female,Yes,4,20,No
1219.995,204,6j8b3x49wv,conventional,0,request,Spanish,19,conventional,Request,No,Female,Yes,4,20,No
,205,6j8b3x49wv,conventional,,question,piano,19,conventional,,No,Female,Yes,4,20,No
714.87,206,6j8b3x49wv,conventional,0,question,piano,19,conventional,Request,No,Female,Yes,4,20,No
,207,6j8b3x49wv,conventional,,request,window,19,conventional,,No,Female,Yes,4,20,No
918.4699999,208,6j8b3x49wv,conventional,0,request,window,19,conventional,Request,Yes,Female,Yes,4,20,No
,209,6j8b3x49wv,conventional,,request,piano,19,conventional,,No,Female,Yes,4,20,No
920.9799999,210,6j8b3x49wv,conventional,0,request,piano,19,conventional,Request,Yes,Female,Yes,4,20,No
,211,6j8b3x49wv,conventional,,question,Spanish,19,conventional,,No,Female,Yes,4,20,No
6026.23,212,6j8b3x49wv,conventional,0,question,Spanish,19,conventional,Request,Yes,Female,Yes,4,20,No
,213,6j8b3x49wv,conventional,,question,door,19,conventional,,No,Female,Yes,4,20,No
681.19,214,6j8b3x49wv,conventional,0,question,door,19,conventional,Request,Yes,Female,Yes,4,20,No
,215,6j8b3x49wv,conventional,,question,box,19,conventional,,No,Female,Yes,4,20,No
440.6750001,216,6j8b3x49wv,conventional,1,question,box,19,conventional,Non-Request,Yes,Female,Yes,4,20,No
,217,6j8b3x49wv,conventional,,request,temp,19,conventional,,No,Female,Yes,4,20,No
10633.365,218,6j8b3x49wv,conventional,1,request,temp,19,conventional,Non-Request,No,Female,Yes,4,20,No
,219,6j8b3x49wv,conventional,,question,temp,19,conventional,,No,Female,Yes,4,20,No
400.5699999,220,6j8b3x49wv,conventional,0,question,temp,19,conventional,Request,Yes,Female,Yes,4,20,No
7862.595,221,6j8b3x49wv,conventional,,,,,,,No,Female,Yes,4,20,No
9835.75,222,6j8b3x49wv,conventional,,,,,,,No,Female,Yes,4,20,No
2760.85,223,6j8b3x49wv,conventional,,,,,,,No,Female,Yes,4,20,No
18063.885,0,u1p06gp6dx,non_conventional,,,,,,,No,Female,Yes,3,18,No
2059.6,1,u1p06gp6dx,non_conventional,,,,,,,No,Female,Yes,3,18,No
7719.18,2,u1p06gp6dx,non_conventional,,,,,,,No,Female,Yes,3,18,No
3879.6,3,u1p06gp6dx,non_conventional,2,,,,,,No,Female,Yes,3,18,No
39327.95,4,u1p06gp6dx,non_conventional,,,,,,,No,Female,Yes,3,18,No
,5,u1p06gp6dx,non_conventional,,request,laptop,22,nonconventional,,No,Female,Yes,3,18,No
1491.835,6,u1p06gp6dx,non_conventional,1,request,laptop,22,nonconventional,Non-Request,No,Female,Yes,3,18,No
,7,u1p06gp6dx,non_conventional,,request,back,22,nonconventional,,No,Female,Yes,3,18,No
438.1350001,8,u1p06gp6dx,non_conventional,1,request,back,22,nonconventional,Non-Request,No,Female,Yes,3,18,No
,9,u1p06gp6dx,non_conventional,,request,phone,22,nonconventional,,No,Female,Yes,3,18,No
318.34,10,u1p06gp6dx,non_conventional,1,request,phone,22,nonconventional,Non-Request,No,Female,Yes,3,18,No
,11,u1p06gp6dx,non_conventional,,request,car,22,nonconventional,,No,Female,Yes,3,18,No
483.825,12,u1p06gp6dx,non_conventional,1,request,car,22,nonconventional,Non-Request,No,Female,Yes,3,18,No
,13,u1p06gp6dx,non_conventional,,statement,phone,22,nonconventional,,No,Female,Yes,3,18,No
1013.785,14,u1p06gp6dx,non_conventional,1,statement,phone,22,nonconventional,Non-Request,Yes,Female,Yes,3,18,No
,15,u1p06gp6dx,non_conventional,,statement,laptop,22,nonconventional,,No,Female,Yes,3,18,No
1600.015,16,u1p06gp6dx,non_conventional,1,statement,laptop,22,nonconventional,Non-Request,Yes,Female,Yes,3,18,No
,17,u1p06gp6dx,non_conventional,,request,soup,22,nonconventional,,No,Female,Yes,3,18,No
815.1,18,u1p06gp6dx,non_conventional,1,request,soup,22,nonconventional,Non-Request,No,Female,Yes,3,18,No
,19,u1p06gp6dx,non_conventional,,request,office,22,nonconventional,,No,Female,Yes,3,18,No
746.48,20,u1p06gp6dx,non_conventional,1,request,office,22,nonconventional,Non-Request,No,Female,Yes,3,18,No
,21,u1p06gp6dx,non_conventional,,statement,soup,22,nonconventional,,No,Female,Yes,3,18,No
702.81,22,u1p06gp6dx,non_conventional,1,statement,soup,22,nonconventional,Non-Request,Yes,Female,Yes,3,18,No
,23,u1p06gp6dx,non_conventional,,statement,car,22,nonconventional,,No,Female,Yes,3,18,No
1586.995,24,u1p06gp6dx,non_conventional,1,statement,car,22,nonconventional,Non-Request,Yes,Female,Yes,3,18,No
,25,u1p06gp6dx,non_conventional,,statement,office,22,nonconventional,,No,Female,Yes,3,18,No
376.3850001,26,u1p06gp6dx,non_conventional,1,statement,office,22,nonconventional,Non-Request,Yes,Female,Yes,3,18,No
,27,u1p06gp6dx,non_conventional,,statement,back,22,nonconventional,,No,Female,Yes,3,18,No
332.785,28,u1p06gp6dx,non_conventional,1,statement,back,22,nonconventional,Non-Request,Yes,Female,Yes,3,18,No
,29,u1p06gp6dx,non_conventional,,statement,back,19,nonconventional,,No,Female,Yes,3,18,No
2940.525,30,u1p06gp6dx,non_conventional,1,statement,back,19,nonconventional,Non-Request,No,Female,Yes,3,18,No
,31,u1p06gp6dx,non_conventional,,request,office,19,nonconventional,,No,Female,Yes,3,18,No
548.955,32,u1p06gp6dx,non_conventional,1,request,office,19,nonconventional,Non-Request,No,Female,Yes,3,18,No
,33,u1p06gp6dx,non_conventional,,request,phone,19,nonconventional,,No,Female,Yes,3,18,No
3049.865,34,u1p06gp6dx,non_conventional,1,request,phone,19,nonconventional,Non-Request,No,Female,Yes,3,18,No
,35,u1p06gp6dx,non_conventional,,request,soup,19,nonconventional,,No,Female,Yes,3,18,No
662.5250001,36,u1p06gp6dx,non_conventional,1,request,soup,19,nonconventional,Non-Request,No,Female,Yes,3,18,No
,37,u1p06gp6dx,non_conventional,,request,laptop,19,nonconventional,,No,Female,Yes,3,18,No
333.5350001,38,u1p06gp6dx,non_conventional,1,request,laptop,19,nonconventional,Non-Request,No,Female,Yes,3,18,No
,39,u1p06gp6dx,non_conventional,,statement,soup,19,nonconventional,,No,Female,Yes,3,18,No
364.695,40,u1p06gp6dx,non_conventional,1,statement,soup,19,nonconventional,Non-Request,Yes,Female,Yes,3,18,No
,41,u1p06gp6dx,non_conventional,,statement,phone,19,nonconventional,,No,Female,Yes,3,18,No
367.94,42,u1p06gp6dx,non_conventional,1,statement,phone,19,nonconventional,Non-Request,Yes,Female,Yes,3,18,No
,43,u1p06gp6dx,non_conventional,,statement,office,19,nonconventional,,No,Female,Yes,3,18,No
393.365,44,u1p06gp6dx,non_conventional,1,statement,office,19,nonconventional,Non-Request,Yes,Female,Yes,3,18,No
,45,u1p06gp6dx,non_conventional,,request,car,19,nonconventional,,No,Female,Yes,3,18,No
1034.975,46,u1p06gp6dx,non_conventional,0,request,car,19,nonconventional,Request,No,Female,Yes,3,18,No
,47,u1p06gp6dx,non_conventional,,statement,car,19,nonconventional,,No,Female,Yes,3,18,No
764.34,48,u1p06gp6dx,non_conventional,1,statement,car,19,nonconventional,Non-Request,Yes,Female,Yes,3,18,No
,49,u1p06gp6dx,non_conventional,,request,back,19,nonconventional,,No,Female,Yes,3,18,No
481.955,50,u1p06gp6dx,non_conventional,1,request,back,19,nonconventional,Non-Request,Yes,Female,Yes,3,18,No
,51,u1p06gp6dx,non_conventional,,statement,laptop,19,nonconventional,,No,Female,Yes,3,18,No
1573.905,52,u1p06gp6dx,non_conventional,0,statement,laptop,19,nonconventional,Request,Yes,Female,Yes,3,18,No
,53,u1p06gp6dx,non_conventional,,statement,phone,8,nonconventional,,No,Female,Yes,3,18,No
1410.915,54,u1p06gp6dx,non_conventional,0,statement,phone,8,nonconventional,Request,No,Female,Yes,3,18,No
,55,u1p06gp6dx,non_conventional,,statement,car,8,nonconventional,,No,Female,Yes,3,18,No
335.755,56,u1p06gp6dx,non_conventional,0,statement,car,8,nonconventional,Request,No,Female,Yes,3,18,No
,57,u1p06gp6dx,non_conventional,,request,office,8,nonconventional,,No,Female,Yes,3,18,No
794.715,58,u1p06gp6dx,non_conventional,1,request,office,8,nonconventional,Non-Request,No,Female,Yes,3,18,No
,59,u1p06gp6dx,non_conventional,,request,back,8,nonconventional,,No,Female,Yes,3,18,No
401.795,60,u1p06gp6dx,non_conventional,1,request,back,8,nonconventional,Non-Request,No,Female,Yes,3,18,No
,61,u1p06gp6dx,non_conventional,,statement,laptop,8,nonconventional,,No,Female,Yes,3,18,No
1084.82,62,u1p06gp6dx,non_conventional,0,statement,laptop,8,nonconventional,Request,No,Female,Yes,3,18,No
,63,u1p06gp6dx,non_conventional,,request,soup,8,nonconventional,,No,Female,Yes,3,18,No
350.84,64,u1p06gp6dx,non_conventional,1,request,soup,8,nonconventional,Non-Request,No,Female,Yes,3,18,No
,65,u1p06gp6dx,non_conventional,,request,laptop,8,nonconventional,,No,Female,Yes,3,18,No
332.0800001,66,u1p06gp6dx,non_conventional,1,request,laptop,8,nonconventional,Non-Request,Yes,Female,Yes,3,18,No
,67,u1p06gp6dx,non_conventional,,statement,soup,8,nonconventional,,No,Female,Yes,3,18,No
333.99,68,u1p06gp6dx,non_conventional,1,statement,soup,8,nonconventional,Non-Request,Yes,Female,Yes,3,18,No
,69,u1p06gp6dx,non_conventional,,statement,office,8,nonconventional,,No,Female,Yes,3,18,No
159.375,70,u1p06gp6dx,non_conventional,1,statement,office,8,nonconventional,Non-Request,Yes,Female,Yes,3,18,No
,71,u1p06gp6dx,non_conventional,,request,phone,8,nonconventional,,No,Female,Yes,3,18,No
481.39,72,u1p06gp6dx,non_conventional,0,request,phone,8,nonconventional,Request,Yes,Female,Yes,3,18,No
,73,u1p06gp6dx,non_conventional,,request,car,8,nonconventional,,No,Female,Yes,3,18,No
337.9899999,74,u1p06gp6dx,non_conventional,0,request,car,8,nonconventional,Request,Yes,Female,Yes,3,18,No
,75,u1p06gp6dx,non_conventional,,statement,back,8,nonconventional,,No,Female,Yes,3,18,No
1831.115,76,u1p06gp6dx,non_conventional,1,statement,back,8,nonconventional,Non-Request,Yes,Female,Yes,3,18,No
,77,u1p06gp6dx,non_conventional,,request,car,25,nonconventional,,No,Female,Yes,3,18,No
636.5,78,u1p06gp6dx,non_conventional,0,request,car,25,nonconventional,Request,No,Female,Yes,3,18,No
,79,u1p06gp6dx,non_conventional,,statement,back,25,nonconventional,,No,Female,Yes,3,18,No
1499.12,80,u1p06gp6dx,non_conventional,1,statement,back,25,nonconventional,Non-Request,No,Female,Yes,3,18,No
,81,u1p06gp6dx,non_conventional,,statement,soup,25,nonconventional,,No,Female,Yes,3,18,No
395,82,u1p06gp6dx,non_conventional,1,statement,soup,25,nonconventional,Non-Request,No,Female,Yes,3,18,No
,83,u1p06gp6dx,non_conventional,,statement,office,25,nonconventional,,No,Female,Yes,3,18,No
773.34,84,u1p06gp6dx,non_conventional,1,statement,office,25,nonconventional,Non-Request,No,Female,Yes,3,18,No
,85,u1p06gp6dx,non_conventional,,request,office,25,nonconventional,,No,Female,Yes,3,18,No
484.7550001,86,u1p06gp6dx,non_conventional,1,request,office,25,nonconventional,Non-Request,Yes,Female,Yes,3,18,No
,87,u1p06gp6dx,non_conventional,,request,laptop,25,nonconventional,,No,Female,Yes,3,18,No
1616.145,88,u1p06gp6dx,non_conventional,1,request,laptop,25,nonconventional,Non-Request,No,Female,Yes,3,18,No
,89,u1p06gp6dx,non_conventional,,request,back,25,nonconventional,,No,Female,Yes,3,18,No
364.19,90,u1p06gp6dx,non_conventional,1,request,back,25,nonconventional,Non-Request,Yes,Female,Yes,3,18,No
,91,u1p06gp6dx,non_conventional,,request,soup,25,nonconventional,,No,Female,Yes,3,18,No
286.775,92,u1p06gp6dx,non_conventional,1,request,soup,25,nonconventional,Non-Request,Yes,Female,Yes,3,18,No
,93,u1p06gp6dx,non_conventional,,statement,car,25,nonconventional,,No,Female,Yes,3,18,No
322.055,94,u1p06gp6dx,non_conventional,0,statement,car,25,nonconventional,Request,Yes,Female,Yes,3,18,No
,95,u1p06gp6dx,non_conventional,,statement,laptop,25,nonconventional,,No,Female,Yes,3,18,No
346.88,96,u1p06gp6dx,non_conventional,1,statement,laptop,25,nonconventional,Non-Request,Yes,Female,Yes,3,18,No
,97,u1p06gp6dx,non_conventional,,request,phone,25,nonconventional,,No,Female,Yes,3,18,No
807.67,98,u1p06gp6dx,non_conventional,0,request,phone,25,nonconventional,Request,No,Female,Yes,3,18,No
,99,u1p06gp6dx,non_conventional,,statement,phone,25,nonconventional,,No,Female,Yes,3,18,No
508.8549999,100,u1p06gp6dx,non_conventional,1,statement,phone,25,nonconventional,Non-Request,Yes,Female,Yes,3,18,No
,101,u1p06gp6dx,non_conventional,,request,office,2,nonconventional,,No,Female,Yes,3,18,No
190.8250001,102,u1p06gp6dx,non_conventional,1,request,office,2,nonconventional,Non-Request,No,Female,Yes,3,18,No
,103,u1p06gp6dx,non_conventional,,statement,car,2,nonconventional,,No,Female,Yes,3,18,No
526.635,104,u1p06gp6dx,non_conventional,1,statement,car,2,nonconventional,Non-Request,No,Female,Yes,3,18,No
,105,u1p06gp6dx,non_conventional,,request,phone,2,nonconventional,,No,Female,Yes,3,18,No
904.8350001,106,u1p06gp6dx,non_conventional,0,request,phone,2,nonconventional,Request,No,Female,Yes,3,18,No
,107,u1p06gp6dx,non_conventional,,statement,laptop,2,nonconventional,,No,Female,Yes,3,18,No
420.525,108,u1p06gp6dx,non_conventional,0,statement,laptop,2,nonconventional,Request,No,Female,Yes,3,18,No
,109,u1p06gp6dx,non_conventional,,request,laptop,2,nonconventional,,No,Female,Yes,3,18,No
345.705,110,u1p06gp6dx,non_conventional,0,request,laptop,2,nonconventional,Request,Yes,Female,Yes,3,18,No
,111,u1p06gp6dx,non_conventional,,statement,back,2,nonconventional,,No,Female,Yes,3,18,No
508.16,112,u1p06gp6dx,non_conventional,1,statement,back,2,nonconventional,Non-Request,No,Female,Yes,3,18,No
,113,u1p06gp6dx,non_conventional,,statement,office,2,nonconventional,,No,Female,Yes,3,18,No
598.595,114,u1p06gp6dx,non_conventional,1,statement,office,2,nonconventional,Non-Request,Yes,Female,Yes,3,18,No
,115,u1p06gp6dx,non_conventional,,statement,phone,2,nonconventional,,No,Female,Yes,3,18,No
732.9000001,116,u1p06gp6dx,non_conventional,0,statement,phone,2,nonconventional,Request,Yes,Female,Yes,3,18,No
,117,u1p06gp6dx,non_conventional,,statement,soup,2,nonconventional,,No,Female,Yes,3,18,No
300.665,118,u1p06gp6dx,non_conventional,1,statement,soup,2,nonconventional,Non-Request,No,Female,Yes,3,18,No
,119,u1p06gp6dx,non_conventional,,request,back,2,nonconventional,,No,Female,Yes,3,18,No
460.0399999,120,u1p06gp6dx,non_conventional,1,request,back,2,nonconventional,Non-Request,Yes,Female,Yes,3,18,No
,121,u1p06gp6dx,non_conventional,,request,car,2,nonconventional,,No,Female,Yes,3,18,No
823.305,122,u1p06gp6dx,non_conventional,0,request,car,2,nonconventional,Request,Yes,Female,Yes,3,18,No
,123,u1p06gp6dx,non_conventional,,request,soup,2,nonconventional,,No,Female,Yes,3,18,No
192.81,124,u1p06gp6dx,non_conventional,1,request,soup,2,nonconventional,Non-Request,Yes,Female,Yes,3,18,No
,125,u1p06gp6dx,non_conventional,,statement,soup,20,nonconventional,,No,Female,Yes,3,18,No
206.835,126,u1p06gp6dx,non_conventional,1,statement,soup,20,nonconventional,Non-Request,No,Female,Yes,3,18,No
,127,u1p06gp6dx,non_conventional,,statement,office,20,nonconventional,,No,Female,Yes,3,18,No
1030.565,128,u1p06gp6dx,non_conventional,1,statement,office,20,nonconventional,Non-Request,No,Female,Yes,3,18,No
,129,u1p06gp6dx,non_conventional,,request,office,20,nonconventional,,No,Female,Yes,3,18,No
351.0850001,130,u1p06gp6dx,non_conventional,1,request,office,20,nonconventional,Non-Request,Yes,Female,Yes,3,18,No
,131,u1p06gp6dx,non_conventional,,request,back,20,nonconventional,,No,Female,Yes,3,18,No
627.525,132,u1p06gp6dx,non_conventional,0,request,back,20,nonconventional,Request,No,Female,Yes,3,18,No
,133,u1p06gp6dx,non_conventional,,request,car,20,nonconventional,,No,Female,Yes,3,18,No
649.345,134,u1p06gp6dx,non_conventional,0,request,car,20,nonconventional,Request,No,Female,Yes,3,18,No
,135,u1p06gp6dx,non_conventional,,statement,back,20,nonconventional,,No,Female,Yes,3,18,No
310.88,136,u1p06gp6dx,non_conventional,1,statement,back,20,nonconventional,Non-Request,Yes,Female,Yes,3,18,No
,137,u1p06gp6dx,non_conventional,,statement,phone,20,nonconventional,,No,Female,Yes,3,18,No
332.76,138,u1p06gp6dx,non_conventional,1,statement,phone,20,nonconventional,Non-Request,No,Female,Yes,3,18,No
,139,u1p06gp6dx,non_conventional,,request,soup,20,nonconventional,,No,Female,Yes,3,18,No
223.54,140,u1p06gp6dx,non_conventional,1,request,soup,20,nonconventional,Non-Request,Yes,Female,Yes,3,18,No
,141,u1p06gp6dx,non_conventional,,statement,car,20,nonconventional,,No,Female,Yes,3,18,No
250.72,142,u1p06gp6dx,non_conventional,0,statement,car,20,nonconventional,Request,Yes,Female,Yes,3,18,No
,143,u1p06gp6dx,non_conventional,,request,laptop,20,nonconventional,,No,Female,Yes,3,18,No
321.935,144,u1p06gp6dx,non_conventional,0,request,laptop,20,nonconventional,Request,No,Female,Yes,3,18,No
,145,u1p06gp6dx,non_conventional,,request,phone,20,nonconventional,,No,Female,Yes,3,18,No
605.78,146,u1p06gp6dx,non_conventional,0,request,phone,20,nonconventional,Request,Yes,Female,Yes,3,18,No
,147,u1p06gp6dx,non_conventional,,statement,laptop,20,nonconventional,,No,Female,Yes,3,18,No
252.51,148,u1p06gp6dx,non_conventional,1,statement,laptop,20,nonconventional,Non-Request,Yes,Female,Yes,3,18,No
,149,u1p06gp6dx,non_conventional,,request,office,24,nonconventional,,No,Female,Yes,3,18,No
291.6550001,150,u1p06gp6dx,non_conventional,1,request,office,24,nonconventional,Non-Request,No,Female,Yes,3,18,No
,151,u1p06gp6dx,non_conventional,,statement,laptop,24,nonconventional,,No,Female,Yes,3,18,No
318.4100001,152,u1p06gp6dx,non_conventional,1,statement,laptop,24,nonconventional,Non-Request,No,Female,Yes,3,18,No
,153,u1p06gp6dx,non_conventional,,request,soup,24,nonconventional,,No,Female,Yes,3,18,No
526.49,154,u1p06gp6dx,non_conventional,1,request,soup,24,nonconventional,Non-Request,No,Female,Yes,3,18,No
,155,u1p06gp6dx,non_conventional,,request,car,24,nonconventional,,No,Female,Yes,3,18,No
268.6149999,156,u1p06gp6dx,non_conventional,0,request,car,24,nonconventional,Request,No,Female,Yes,3,18,No
,157,u1p06gp6dx,non_conventional,,request,phone,24,nonconventional,,No,Female,Yes,3,18,No
196.0100001,158,u1p06gp6dx,non_conventional,0,request,phone,24,nonconventional,Request,No,Female,Yes,3,18,No
,159,u1p06gp6dx,non_conventional,,statement,soup,24,nonconventional,,No,Female,Yes,3,18,No
95.01499997,160,u1p06gp6dx,non_conventional,1,statement,soup,24,nonconventional,Non-Request,Yes,Female,Yes,3,18,No
,161,u1p06gp6dx,non_conventional,,statement,phone,24,nonconventional,,No,Female,Yes,3,18,No
1112.11,162,u1p06gp6dx,non_conventional,0,statement,phone,24,nonconventional,Request,Yes,Female,Yes,3,18,No
,163,u1p06gp6dx,non_conventional,,request,back,24,nonconventional,,No,Female,Yes,3,18,No
212.69,164,u1p06gp6dx,non_conventional,1,request,back,24,nonconventional,Non-Request,No,Female,Yes,3,18,No
,165,u1p06gp6dx,non_conventional,,statement,back,24,nonconventional,,No,Female,Yes,3,18,No
595.59,166,u1p06gp6dx,non_conventional,1,statement,back,24,nonconventional,Non-Request,Yes,Female,Yes,3,18,No
,167,u1p06gp6dx,non_conventional,,statement,car,24,nonconventional,,No,Female,Yes,3,18,No
234.63,168,u1p06gp6dx,non_conventional,0,statement,car,24,nonconventional,Request,Yes,Female,Yes,3,18,No
,169,u1p06gp6dx,non_conventional,,statement,office,24,nonconventional,,No,Female,Yes,3,18,No
280.97,170,u1p06gp6dx,non_conventional,1,statement,office,24,nonconventional,Non-Request,Yes,Female,Yes,3,18,No
,171,u1p06gp6dx,non_conventional,,request,laptop,24,nonconventional,,No,Female,Yes,3,18,No
892.995,172,u1p06gp6dx,non_conventional,0,request,laptop,24,nonconventional,Request,Yes,Female,Yes,3,18,No
,173,u1p06gp6dx,non_conventional,,request,office,6,nonconventional,,No,Female,Yes,3,18,No
456.625,174,u1p06gp6dx,non_conventional,1,request,office,6,nonconventional,Non-Request,No,Female,Yes,3,18,No
,175,u1p06gp6dx,non_conventional,,statement,office,6,nonconventional,,No,Female,Yes,3,18,No
324.395,176,u1p06gp6dx,non_conventional,1,statement,office,6,nonconventional,Non-Request,Yes,Female,Yes,3,18,No
,177,u1p06gp6dx,non_conventional,,statement,laptop,6,nonconventional,,No,Female,Yes,3,18,No
744.105,178,u1p06gp6dx,non_conventional,0,statement,laptop,6,nonconventional,Request,No,Female,Yes,3,18,No
,179,u1p06gp6dx,non_conventional,,request,laptop,6,nonconventional,,No,Female,Yes,3,18,No
380.5600001,180,u1p06gp6dx,non_conventional,1,request,laptop,6,nonconventional,Non-Request,Yes,Female,Yes,3,18,No
,181,u1p06gp6dx,non_conventional,,statement,phone,6,nonconventional,,No,Female,Yes,3,18,No
325.5,182,u1p06gp6dx,non_conventional,0,statement,phone,6,nonconventional,Request,No,Female,Yes,3,18,No
,183,u1p06gp6dx,non_conventional,,statement,back,6,nonconventional,,No,Female,Yes,3,18,No
533.1700001,184,u1p06gp6dx,non_conventional,1,statement,back,6,nonconventional,Non-Request,No,Female,Yes,3,18,No
,185,u1p06gp6dx,non_conventional,,statement,car,6,nonconventional,,No,Female,Yes,3,18,No
1199.81,186,u1p06gp6dx,non_conventional,0,statement,car,6,nonconventional,Request,No,Female,Yes,3,18,No
,187,u1p06gp6dx,non_conventional,,statement,soup,6,nonconventional,,No,Female,Yes,3,18,No
309.1549999,188,u1p06gp6dx,non_conventional,1,statement,soup,6,nonconventional,Non-Request,No,Female,Yes,3,18,No
,189,u1p06gp6dx,non_conventional,,request,back,6,nonconventional,,No,Female,Yes,3,18,No
162.9849999,190,u1p06gp6dx,non_conventional,1,request,back,6,nonconventional,Non-Request,Yes,Female,Yes,3,18,No
,191,u1p06gp6dx,non_conventional,,request,soup,6,nonconventional,,No,Female,Yes,3,18,No
176.85,192,u1p06gp6dx,non_conventional,1,request,soup,6,nonconventional,Non-Request,Yes,Female,Yes,3,18,No
,193,u1p06gp6dx,non_conventional,,request,phone,6,nonconventional,,No,Female,Yes,3,18,No
1269.345,194,u1p06gp6dx,non_conventional,1,request,phone,6,nonconventional,Non-Request,Yes,Female,Yes,3,18,No
,195,u1p06gp6dx,non_conventional,,request,car,6,nonconventional,,No,Female,Yes,3,18,No
294.755,196,u1p06gp6dx,non_conventional,0,request,car,6,nonconventional,Request,Yes,Female,Yes,3,18,No
,197,u1p06gp6dx,non_conventional,,request,car,18,nonconventional,,No,Female,Yes,3,18,No
453.37,198,u1p06gp6dx,non_conventional,1,request,car,18,nonconventional,Non-Request,No,Female,Yes,3,18,No
,199,u1p06gp6dx,non_conventional,,statement,soup,18,nonconventional,,No,Female,Yes,3,18,No
286.295,200,u1p06gp6dx,non_conventional,1,statement,soup,18,nonconventional,Non-Request,No,Female,Yes,3,18,No
,201,u1p06gp6dx,non_conventional,,request,laptop,18,nonconventional,,No,Female,Yes,3,18,No
391.965,202,u1p06gp6dx,non_conventional,1,request,laptop,18,nonconventional,Non-Request,No,Female,Yes,3,18,No
,203,u1p06gp6dx,non_conventional,,request,phone,18,nonconventional,,No,Female,Yes,3,18,No
670.4000001,204,u1p06gp6dx,non_conventional,0,request,phone,18,nonconventional,Request,No,Female,Yes,3,18,No
,205,u1p06gp6dx,non_conventional,,statement,phone,18,nonconventional,,No,Female,Yes,3,18,No
356.6149999,206,u1p06gp6dx,non_conventional,1,statement,phone,18,nonconventional,Non-Request,Yes,Female,Yes,3,18,No
,207,u1p06gp6dx,non_conventional,,request,soup,18,nonconventional,,No,Female,Yes,3,18,No
178.68,208,u1p06gp6dx,non_conventional,1,request,soup,18,nonconventional,Non-Request,Yes,Female,Yes,3,18,No
,209,u1p06gp6dx,non_conventional,,request,office,18,nonconventional,,No,Female,Yes,3,18,No
322.315,210,u1p06gp6dx,non_conventional,1,request,office,18,nonconventional,Non-Request,No,Female,Yes,3,18,No
,211,u1p06gp6dx,non_conventional,,statement,back,18,nonconventional,,No,Female,Yes,3,18,No
3259.865,212,u1p06gp6dx,non_conventional,1,statement,back,18,nonconventional,Non-Request,No,Female,Yes,3,18,No
,213,u1p06gp6dx,non_conventional,,request,back,18,nonconventional,,No,Female,Yes,3,18,No
677.705,214,u1p06gp6dx,non_conventional,0,request,back,18,nonconventional,Request,Yes,Female,Yes,3,18,No
,215,u1p06gp6dx,non_conventional,,statement,office,18,nonconventional,,No,Female,Yes,3,18,No
243.7850001,216,u1p06gp6dx,non_conventional,1,statement,office,18,nonconventional,Non-Request,Yes,Female,Yes,3,18,No
,217,u1p06gp6dx,non_conventional,,statement,car,18,nonconventional,,No,Female,Yes,3,18,No
443.385,218,u1p06gp6dx,non_conventional,0,statement,car,18,nonconventional,Request,Yes,Female,Yes,3,18,No
,219,u1p06gp6dx,non_conventional,,statement,laptop,18,nonconventional,,No,Female,Yes,3,18,No
336.685,220,u1p06gp6dx,non_conventional,0,statement,laptop,18,nonconventional,Request,Yes,Female,Yes,3,18,No
34867.385,221,u1p06gp6dx,non_conventional,,,,,,,No,Female,Yes,3,18,No
11158.285,222,u1p06gp6dx,non_conventional,,,,,,,No,Female,Yes,3,18,No
2664.72,223,u1p06gp6dx,non_conventional,,,,,,,No,Female,Yes,3,18,No
21858.52,0,fb8q7un4zb,non_conventional,,,,,,,No,Male,Yes,5,19,No
15988.745,1,fb8q7un4zb,non_conventional,,,,,,,No,Male,Yes,5,19,No
5232.86,2,fb8q7un4zb,non_conventional,,,,,,,No,Male,Yes,5,19,No
5250.885,3,fb8q7un4zb,non_conventional,2,,,,,,No,Male,Yes,5,19,No
57994.27,4,fb8q7un4zb,non_conventional,,,,,,,No,Male,Yes,5,19,No
,5,fb8q7un4zb,non_conventional,,statement,laptop,7,nonconventional,,No,Male,Yes,5,19,No
2483.47,6,fb8q7un4zb,non_conventional,1,statement,laptop,7,nonconventional,Non-Request,No,Male,Yes,5,19,No
,7,fb8q7un4zb,non_conventional,,request,laptop,7,nonconventional,,No,Male,Yes,5,19,No
8018.825,8,fb8q7un4zb,non_conventional,1,request,laptop,7,nonconventional,Non-Request,Yes,Male,Yes,5,19,No
,9,fb8q7un4zb,non_conventional,,statement,office,7,nonconventional,,No,Male,Yes,5,19,No
2340.08,10,fb8q7un4zb,non_conventional,1,statement,office,7,nonconventional,Non-Request,No,Male,Yes,5,19,No
,11,fb8q7un4zb,non_conventional,,request,office,7,nonconventional,,No,Male,Yes,5,19,No
405.805,12,fb8q7un4zb,non_conventional,0,request,office,7,nonconventional,Request,Yes,Male,Yes,5,19,No
,13,fb8q7un4zb,non_conventional,,statement,car,7,nonconventional,,No,Male,Yes,5,19,No
3864.35,14,fb8q7un4zb,non_conventional,1,statement,car,7,nonconventional,Non-Request,No,Male,Yes,5,19,No
,15,fb8q7un4zb,non_conventional,,statement,back,7,nonconventional,,No,Male,Yes,5,19,No
929.3900001,16,fb8q7un4zb,non_conventional,0,statement,back,7,nonconventional,Request,No,Male,Yes,5,19,No
,17,fb8q7un4zb,non_conventional,,request,soup,7,nonconventional,,No,Male,Yes,5,19,No
2978.36,18,fb8q7un4zb,non_conventional,0,request,soup,7,nonconventional,Request,No,Male,Yes,5,19,No
,19,fb8q7un4zb,non_conventional,,request,back,7,nonconventional,,No,Male,Yes,5,19,No
721.5549999,20,fb8q7un4zb,non_conventional,0,request,back,7,nonconventional,Request,Yes,Male,Yes,5,19,No
,21,fb8q7un4zb,non_conventional,,request,car,7,nonconventional,,No,Male,Yes,5,19,No
2517.06,22,fb8q7un4zb,non_conventional,1,request,car,7,nonconventional,Non-Request,Yes,Male,Yes,5,19,No
,23,fb8q7un4zb,non_conventional,,request,phone,7,nonconventional,,No,Male,Yes,5,19,No
964.33,24,fb8q7un4zb,non_conventional,1,request,phone,7,nonconventional,Non-Request,No,Male,Yes,5,19,No
,25,fb8q7un4zb,non_conventional,,statement,phone,7,nonconventional,,No,Male,Yes,5,19,No
443.895,26,fb8q7un4zb,non_conventional,0,statement,phone,7,nonconventional,Request,Yes,Male,Yes,5,19,No
,27,fb8q7un4zb,non_conventional,,statement,soup,7,nonconventional,,No,Male,Yes,5,19,No
1065.635,28,fb8q7un4zb,non_conventional,1,statement,soup,7,nonconventional,Non-Request,Yes,Male,Yes,5,19,No
,29,fb8q7un4zb,non_conventional,,request,laptop,5,nonconventional,,No,Male,Yes,5,19,No
848.4850001,30,fb8q7un4zb,non_conventional,0,request,laptop,5,nonconventional,Request,No,Male,Yes,5,19,No
,31,fb8q7un4zb,non_conventional,,request,car,5,nonconventional,,No,Male,Yes,5,19,No
368.945,32,fb8q7un4zb,non_conventional,0,request,car,5,nonconventional,Request,No,Male,Yes,5,19,No
,33,fb8q7un4zb,non_conventional,,request,back,5,nonconventional,,No,Male,Yes,5,19,No
364.38,34,fb8q7un4zb,non_conventional,0,request,back,5,nonconventional,Request,No,Male,Yes,5,19,No
,35,fb8q7un4zb,non_conventional,,statement,car,5,nonconventional,,No,Male,Yes,5,19,No
371.275,36,fb8q7un4zb,non_conventional,0,statement,car,5,nonconventional,Request,Yes,Male,Yes,5,19,No
,37,fb8q7un4zb,non_conventional,,request,soup,5,nonconventional,,No,Male,Yes,5,19,No
563.265,38,fb8q7un4zb,non_conventional,0,request,soup,5,nonconventional,Request,No,Male,Yes,5,19,No
,39,fb8q7un4zb,non_conventional,,statement,office,5,nonconventional,,No,Male,Yes,5,19,No
674.61,40,fb8q7un4zb,non_conventional,1,statement,office,5,nonconventional,Non-Request,No,Male,Yes,5,19,No
,41,fb8q7un4zb,non_conventional,,statement,back,5,nonconventional,,No,Male,Yes,5,19,No
649.2049999,42,fb8q7un4zb,non_conventional,0,statement,back,5,nonconventional,Request,Yes,Male,Yes,5,19,No
,43,fb8q7un4zb,non_conventional,,statement,laptop,5,nonconventional,,No,Male,Yes,5,19,No
344.6750001,44,fb8q7un4zb,non_conventional,1,statement,laptop,5,nonconventional,Non-Request,Yes,Male,Yes,5,19,No
,45,fb8q7un4zb,non_conventional,,statement,soup,5,nonconventional,,No,Male,Yes,5,19,No
367.615,46,fb8q7un4zb,non_conventional,1,statement,soup,5,nonconventional,Non-Request,Yes,Male,Yes,5,19,No
,47,fb8q7un4zb,non_conventional,,statement,phone,5,nonconventional,,No,Male,Yes,5,19,No
714.305,48,fb8q7un4zb,non_conventional,0,statement,phone,5,nonconventional,Request,No,Male,Yes,5,19,No
,49,fb8q7un4zb,non_conventional,,request,office,5,nonconventional,,No,Male,Yes,5,19,No
458.9000001,50,fb8q7un4zb,non_conventional,0,request,office,5,nonconventional,Request,Yes,Male,Yes,5,19,No
,51,fb8q7un4zb,non_conventional,,request,phone,5,nonconventional,,No,Male,Yes,5,19,No
564.7199999,52,fb8q7un4zb,non_conventional,1,request,phone,5,nonconventional,Non-Request,Yes,Male,Yes,5,19,No
,53,fb8q7un4zb,non_conventional,,statement,car,18,nonconventional,,No,Male,Yes,5,19,No
3416.585,54,fb8q7un4zb,non_conventional,1,statement,car,18,nonconventional,Non-Request,No,Male,Yes,5,19,No
,55,fb8q7un4zb,non_conventional,,request,office,18,nonconventional,,No,Male,Yes,5,19,No
897.755,56,fb8q7un4zb,non_conventional,1,request,office,18,nonconventional,Non-Request,No,Male,Yes,5,19,No
,57,fb8q7un4zb,non_conventional,,request,phone,18,nonconventional,,No,Male,Yes,5,19,No
619.9149999,58,fb8q7un4zb,non_conventional,1,request,phone,18,nonconventional,Non-Request,No,Male,Yes,5,19,No
,59,fb8q7un4zb,non_conventional,,statement,back,18,nonconventional,,No,Male,Yes,5,19,No
637.61,60,fb8q7un4zb,non_conventional,1,statement,back,18,nonconventional,Non-Request,No,Male,Yes,5,19,No
,61,fb8q7un4zb,non_conventional,,statement,laptop,18,nonconventional,,No,Male,Yes,5,19,No
179.8449999,62,fb8q7un4zb,non_conventional,1,statement,laptop,18,nonconventional,Non-Request,No,Male,Yes,5,19,No
,63,fb8q7un4zb,non_conventional,,statement,phone,18,nonconventional,,No,Male,Yes,5,19,No
606.61,64,fb8q7un4zb,non_conventional,1,statement,phone,18,nonconventional,Non-Request,Yes,Male,Yes,5,19,No
,65,fb8q7un4zb,non_conventional,,request,car,18,nonconventional,,No,Male,Yes,5,19,No
384.5650001,66,fb8q7un4zb,non_conventional,0,request,car,18,nonconventional,Request,Yes,Male,Yes,5,19,No
,67,fb8q7un4zb,non_conventional,,request,back,18,nonconventional,,No,Male,Yes,5,19,No
620.37,68,fb8q7un4zb,non_conventional,0,request,back,18,nonconventional,Request,Yes,Male,Yes,5,19,No
,69,fb8q7un4zb,non_conventional,,request,soup,18,nonconventional,,No,Male,Yes,5,19,No
966.62,70,fb8q7un4zb,non_conventional,1,request,soup,18,nonconventional,Non-Request,No,Male,Yes,5,19,No
,71,fb8q7un4zb,non_conventional,,statement,office,18,nonconventional,,No,Male,Yes,5,19,No
340.435,72,fb8q7un4zb,non_conventional,0,statement,office,18,nonconventional,Request,Yes,Male,Yes,5,19,No
,73,fb8q7un4zb,non_conventional,,request,laptop,18,nonconventional,,No,Male,Yes,5,19,No
462.375,74,fb8q7un4zb,non_conventional,1,request,laptop,18,nonconventional,Non-Request,Yes,Male,Yes,5,19,No
,75,fb8q7un4zb,non_conventional,,statement,soup,18,nonconventional,,No,Male,Yes,5,19,No
542.17,76,fb8q7un4zb,non_conventional,1,statement,soup,18,nonconventional,Non-Request,Yes,Male,Yes,5,19,No
,77,fb8q7un4zb,non_conventional,,statement,car,6,nonconventional,,No,Male,Yes,5,19,No
2697.515,78,fb8q7un4zb,non_conventional,0,statement,car,6,nonconventional,Request,No,Male,Yes,5,19,No
,79,fb8q7un4zb,non_conventional,,statement,phone,6,nonconventional,,No,Male,Yes,5,19,No
345.325,80,fb8q7un4zb,non_conventional,0,statement,phone,6,nonconventional,Request,No,Male,Yes,5,19,No
,81,fb8q7un4zb,non_conventional,,statement,laptop,6,nonconventional,,No,Male,Yes,5,19,No
1625.83,82,fb8q7un4zb,non_conventional,1,statement,laptop,6,nonconventional,Non-Request,No,Male,Yes,5,19,No
,83,fb8q7un4zb,non_conventional,,request,laptop,6,nonconventional,,No,Male,Yes,5,19,No
376.09,84,fb8q7un4zb,non_conventional,0,request,laptop,6,nonconventional,Request,Yes,Male,Yes,5,19,No
,85,fb8q7un4zb,non_conventional,,request,soup,6,nonconventional,,No,Male,Yes,5,19,No
320.42,86,fb8q7un4zb,non_conventional,1,request,soup,6,nonconventional,Non-Request,No,Male,Yes,5,19,No
,87,fb8q7un4zb,non_conventional,,request,office,6,nonconventional,,No,Male,Yes,5,19,No
438.2600001,88,fb8q7un4zb,non_conventional,0,request,office,6,nonconventional,Request,No,Male,Yes,5,19,No
,89,fb8q7un4zb,non_conventional,,request,phone,6,nonconventional,,No,Male,Yes,5,19,No
641.34,90,fb8q7un4zb,non_conventional,0,request,phone,6,nonconventional,Request,Yes,Male,Yes,5,19,No
,91,fb8q7un4zb,non_conventional,,statement,back,6,nonconventional,,No,Male,Yes,5,19,No
479.2599999,92,fb8q7un4zb,non_conventional,1,statement,back,6,nonconventional,Non-Request,No,Male,Yes,5,19,No
,93,fb8q7un4zb,non_conventional,,request,back,6,nonconventional,,No,Male,Yes,5,19,No
388.3249999,94,fb8q7un4zb,non_conventional,0,request,back,6,nonconventional,Request,Yes,Male,Yes,5,19,No
,95,fb8q7un4zb,non_conventional,,statement,office,6,nonconventional,,No,Male,Yes,5,19,No
2268.405,96,fb8q7un4zb,non_conventional,0,statement,office,6,nonconventional,Request,Yes,Male,Yes,5,19,No
,97,fb8q7un4zb,non_conventional,,statement,soup,6,nonconventional,,No,Male,Yes,5,19,No
419.215,98,fb8q7un4zb,non_conventional,1,statement,soup,6,nonconventional,Non-Request,Yes,Male,Yes,5,19,No
,99,fb8q7un4zb,non_conventional,,request,car,6,nonconventional,,No,Male,Yes,5,19,No
360.83,100,fb8q7un4zb,non_conventional,0,request,car,6,nonconventional,Request,Yes,Male,Yes,5,19,No
,101,fb8q7un4zb,non_conventional,,request,laptop,20,nonconventional,,No,Male,Yes,5,19,No
1908.375,102,fb8q7un4zb,non_conventional,0,request,laptop,20,nonconventional,Request,No,Male,Yes,5,19,No
,103,fb8q7un4zb,non_conventional,,request,car,20,nonconventional,,No,Male,Yes,5,19,No
411.355,104,fb8q7un4zb,non_conventional,0,request,car,20,nonconventional,Request,No,Male,Yes,5,19,No
,105,fb8q7un4zb,non_conventional,,request,phone,20,nonconventional,,No,Male,Yes,5,19,No
726.5,106,fb8q7un4zb,non_conventional,0,request,phone,20,nonconventional,Request,No,Male,Yes,5,19,No
,107,fb8q7un4zb,non_conventional,,statement,phone,20,nonconventional,,No,Male,Yes,5,19,No
620.66,108,fb8q7un4zb,non_conventional,1,statement,phone,20,nonconventional,Non-Request,Yes,Male,Yes,5,19,No
,109,fb8q7un4zb,non_conventional,,statement,soup,20,nonconventional,,No,Male,Yes,5,19,No
935.5799999,110,fb8q7un4zb,non_conventional,0,statement,soup,20,nonconventional,Request,No,Male,Yes,5,19,No
,111,fb8q7un4zb,non_conventional,,request,office,20,nonconventional,,No,Male,Yes,5,19,No
504.5,112,fb8q7un4zb,non_conventional,0,request,office,20,nonconventional,Request,No,Male,Yes,5,19,No
,113,fb8q7un4zb,non_conventional,,request,back,20,nonconventional,,No,Male,Yes,5,19,No
441.305,114,fb8q7un4zb,non_conventional,0,request,back,20,nonconventional,Request,No,Male,Yes,5,19,No
,115,fb8q7un4zb,non_conventional,,statement,car,20,nonconventional,,No,Male,Yes,5,19,No
1888.385,116,fb8q7un4zb,non_conventional,1,statement,car,20,nonconventional,Non-Request,Yes,Male,Yes,5,19,No
,117,fb8q7un4zb,non_conventional,,statement,back,20,nonconventional,,No,Male,Yes,5,19,No
331.275,118,fb8q7un4zb,non_conventional,0,statement,back,20,nonconventional,Request,Yes,Male,Yes,5,19,No
,119,fb8q7un4zb,non_conventional,,statement,laptop,20,nonconventional,,No,Male,Yes,5,19,No
360.2999999,120,fb8q7un4zb,non_conventional,1,statement,laptop,20,nonconventional,Non-Request,Yes,Male,Yes,5,19,No
,121,fb8q7un4zb,non_conventional,,statement,office,20,nonconventional,,No,Male,Yes,5,19,No
340.28,122,fb8q7un4zb,non_conventional,1,statement,office,20,nonconventional,Non-Request,Yes,Male,Yes,5,19,No
,123,fb8q7un4zb,non_conventional,,request,soup,20,nonconventional,,No,Male,Yes,5,19,No
381.9899999,124,fb8q7un4zb,non_conventional,1,request,soup,20,nonconventional,Non-Request,Yes,Male,Yes,5,19,No
,125,fb8q7un4zb,non_conventional,,request,phone,17,nonconventional,,No,Male,Yes,5,19,No
389.475,126,fb8q7un4zb,non_conventional,0,request,phone,17,nonconventional,Request,No,Male,Yes,5,19,No
,127,fb8q7un4zb,non_conventional,,request,office,17,nonconventional,,No,Male,Yes,5,19,No
2715.81,128,fb8q7un4zb,non_conventional,1,request,office,17,nonconventional,Non-Request,No,Male,Yes,5,19,No
,129,fb8q7un4zb,non_conventional,,request,back,17,nonconventional,,No,Male,Yes,5,19,No
483.3549999,130,fb8q7un4zb,non_conventional,0,request,back,17,nonconventional,Request,No,Male,Yes,5,19,No
,131,fb8q7un4zb,non_conventional,,statement,back,17,nonconventional,,No,Male,Yes,5,19,No
405.58,132,fb8q7un4zb,non_conventional,1,statement,back,17,nonconventional,Non-Request,Yes,Male,Yes,5,19,No
,133,fb8q7un4zb,non_conventional,,statement,laptop,17,nonconventional,,No,Male,Yes,5,19,No
364.235,134,fb8q7un4zb,non_conventional,1,statement,laptop,17,nonconventional,Non-Request,No,Male,Yes,5,19,No
,135,fb8q7un4zb,non_conventional,,statement,car,17,nonconventional,,No,Male,Yes,5,19,No
388.35,136,fb8q7un4zb,non_conventional,1,statement,car,17,nonconventional,Non-Request,No,Male,Yes,5,19,No
,137,fb8q7un4zb,non_conventional,,request,laptop,17,nonconventional,,No,Male,Yes,5,19,No
379.22,138,fb8q7un4zb,non_conventional,1,request,laptop,17,nonconventional,Non-Request,Yes,Male,Yes,5,19,No
,139,fb8q7un4zb,non_conventional,,statement,office,17,nonconventional,,No,Male,Yes,5,19,No
366.44,140,fb8q7un4zb,non_conventional,1,statement,office,17,nonconventional,Non-Request,Yes,Male,Yes,5,19,No
,141,fb8q7un4zb,non_conventional,,request,car,17,nonconventional,,No,Male,Yes,5,19,No
429.4350001,142,fb8q7un4zb,non_conventional,0,request,car,17,nonconventional,Request,Yes,Male,Yes,5,19,No
,143,fb8q7un4zb,non_conventional,,statement,soup,17,nonconventional,,No,Male,Yes,5,19,No
404.465,144,fb8q7un4zb,non_conventional,0,statement,soup,17,nonconventional,Request,No,Male,Yes,5,19,No
,145,fb8q7un4zb,non_conventional,,request,soup,17,nonconventional,,No,Male,Yes,5,19,No
1269.315,146,fb8q7un4zb,non_conventional,1,request,soup,17,nonconventional,Non-Request,Yes,Male,Yes,5,19,No
,147,fb8q7un4zb,non_conventional,,statement,phone,17,nonconventional,,No,Male,Yes,5,19,No
367.06,148,fb8q7un4zb,non_conventional,1,statement,phone,17,nonconventional,Non-Request,Yes,Male,Yes,5,19,No
,149,fb8q7un4zb,non_conventional,,request,laptop,11,nonconventional,,No,Male,Yes,5,19,No
565.74,150,fb8q7un4zb,non_conventional,0,request,laptop,11,nonconventional,Request,No,Male,Yes,5,19,No
,151,fb8q7un4zb,non_conventional,,statement,back,11,nonconventional,,No,Male,Yes,5,19,No
526.55,152,fb8q7un4zb,non_conventional,1,statement,back,11,nonconventional,Non-Request,No,Male,Yes,5,19,No
,153,fb8q7un4zb,non_conventional,,statement,laptop,11,nonconventional,,No,Male,Yes,5,19,No
344.6,154,fb8q7un4zb,non_conventional,1,statement,laptop,11,nonconventional,Non-Request,Yes,Male,Yes,5,19,No
,155,fb8q7un4zb,non_conventional,,statement,car,11,nonconventional,,No,Male,Yes,5,19,No
291.2000001,156,fb8q7un4zb,non_conventional,1,statement,car,11,nonconventional,Non-Request,No,Male,Yes,5,19,No
