,view_history,rt,trial_type,trial_index,time_elapsed,internal_node_id,subject,survey_code,form_assignment,url,stimulus,button_pressed,type,condition,topic,speaker,form,responses,question_order,response,already_heard_by_speaker,Gender,Native_Speaker,Music_Ability,Age,Mobile
0,"[{""page_index"":0,""viewing_time"":70377.45500000892}]",70382.59500000278,instructions,0,70431,0.0-0.0,u9v7sk4hb1,u9v7sk4hb1,conventional,,,,,,,,,,,,No,Prefer not to say,No,7,123213,No
1,,16085.369999986142,external-html,1,86993,0.0-1.0,u9v7sk4hb1,u9v7sk4hb1,conventional,consent.html,,,,,,,,,,,No,Prefer not to say,No,7,123213,No
2,"[{""page_index"":0,""viewing_time"":1723.0400000116788}]",1723.3549999946265,instructions,2,88973,0.0-2.0,u9v7sk4hb1,u9v7sk4hb1,conventional,,,,,,,,,,,,No,Prefer not to say,No,7,123213,No
3,,3562.8800000122283,audio-button-response,3,92800,0.0-3.0,u9v7sk4hb1,u9v7sk4hb1,conventional,,calibration/ears_audio_check.wav,2.0,test,,,,,,,,No,Prefer not to say,No,7,123213,No
4,"[{""page_index"":0,""viewing_time"":2613.225000008242},{""page_index"":1,""viewing_time"":22927.024999982677},{""page_index"":2,""viewing_time"":3179.564999998547}]",28720.05999999237,instructions,4,121775,0.0-4.0,u9v7sk4hb1,u9v7sk4hb1,conventional,,,,,,,,,,,,No,Prefer not to say,No,7,123213,No
5,,,audio-button-response,5,123351,0.0-5.0-0.0-0.0,u9v7sk4hb1,u9v7sk4hb1,conventional,,../data/raw/scaled_stimuli/4_request_window.wav,,,request,window,4.0,conventional,,,,No,Prefer not to say,No,7,123213,No
6,,6749.650000012479,html-button-response,6,130363,0.0-5.0-0.0-1.0,u9v7sk4hb1,u9v7sk4hb1,conventional,,,0.0,,request,window,4.0,conventional,,,Request,No,Prefer not to say,No,7,123213,No
7,,,audio-button-response,7,132256,0.0-5.0-1.0-0.0,u9v7sk4hb1,u9v7sk4hb1,conventional,,../data/raw/scaled_stimuli/4_request_box.wav,,,request,box,4.0,conventional,,,,No,Prefer not to say,No,7,123213,No
8,,712.7500000060536,html-button-response,8,133225,0.0-5.0-1.0-1.0,u9v7sk4hb1,u9v7sk4hb1,conventional,,,1.0,,request,box,4.0,conventional,,,Non-Request,No,Prefer not to say,No,7,123213,No
9,,,audio-button-response,9,134770,0.0-5.0-2.0-0.0,u9v7sk4hb1,u9v7sk4hb1,conventional,,../data/raw/scaled_stimuli/4_question_door.wav,,,question,door,4.0,conventional,,,,No,Prefer not to say,No,7,123213,No
10,,1744.685000012396,html-button-response,10,136770,0.0-5.0-2.0-1.0,u9v7sk4hb1,u9v7sk4hb1,conventional,,,0.0,,question,door,4.0,conventional,,,Request,No,Prefer not to say,No,7,123213,No
11,,,audio-button-response,11,138462,0.0-5.0-3.0-0.0,u9v7sk4hb1,u9v7sk4hb1,conventional,,../data/raw/scaled_stimuli/4_question_box.wav,,,question,box,4.0,conventional,,,,No,Prefer not to say,No,7,123213,No
12,,885.5749999929684,html-button-response,12,139603,0.0-5.0-3.0-1.0,u9v7sk4hb1,u9v7sk4hb1,conventional,,,1.0,,question,box,4.0,conventional,,,Non-Request,Yes,Prefer not to say,No,7,123213,No
13,,,audio-button-response,13,141080,0.0-5.0-4.0-0.0,u9v7sk4hb1,u9v7sk4hb1,conventional,,../data/raw/scaled_stimuli/4_request_door.wav,,,request,door,4.0,conventional,,,,No,Prefer not to say,No,7,123213,No
14,,347.49000001465896,html-button-response,14,141683,0.0-5.0-4.0-1.0,u9v7sk4hb1,u9v7sk4hb1,conventional,,,1.0,,request,door,4.0,conventional,,,Non-Request,Yes,Prefer not to say,No,7,123213,No
15,,,audio-button-response,15,143518,0.0-5.0-5.0-0.0,u9v7sk4hb1,u9v7sk4hb1,conventional,,../data/raw/scaled_stimuli/4_question_window.wav,,,question,window,4.0,conventional,,,,No,Prefer not to say,No,7,123213,No
16,,586.8349999946076,html-button-response,16,144357,0.0-5.0-5.0-1.0,u9v7sk4hb1,u9v7sk4hb1,conventional,,,0.0,,question,window,4.0,conventional,,,Request,Yes,Prefer not to say,No,7,123213,No
17,,,audio-button-response,17,146130,0.0-5.0-6.0-0.0,u9v7sk4hb1,u9v7sk4hb1,conventional,,../data/raw/scaled_stimuli/4_question_temp.wav,,,question,temp,4.0,conventional,,,,No,Prefer not to say,No,7,123213,No
18,,600.9599999815691,html-button-response,18,146983,0.0-5.0-6.0-1.0,u9v7sk4hb1,u9v7sk4hb1,conventional,,,1.0,,question,temp,4.0,conventional,,,Non-Request,No,Prefer not to say,No,7,123213,No
19,,,audio-button-response,19,148563,0.0-5.0-7.0-0.0,u9v7sk4hb1,u9v7sk4hb1,conventional,,../data/raw/scaled_stimuli/4_request_temp.wav,,,request,temp,4.0,conventional,,,,No,Prefer not to say,No,7,123213,No
20,,383.52500001201406,html-button-response,20,149202,0.0-5.0-7.0-1.0,u9v7sk4hb1,u9v7sk4hb1,conventional,,,1.0,,request,temp,4.0,conventional,,,Non-Request,Yes,Prefer not to say,No,7,123213,No
21,,,audio-button-response,21,150641,0.0-5.0-8.0-0.0,u9v7sk4hb1,u9v7sk4hb1,conventional,,../data/raw/scaled_stimuli/4_question_piano.wav,,,question,piano,4.0,conventional,,,,No,Prefer not to say,No,7,123213,No
22,,504.304999980377,html-button-response,22,151401,0.0-5.0-8.0-1.0,u9v7sk4hb1,u9v7sk4hb1,conventional,,,1.0,,question,piano,4.0,conventional,,,Non-Request,No,Prefer not to say,No,7,123213,No
23,,,audio-button-response,23,152731,0.0-5.0-9.0-0.0,u9v7sk4hb1,u9v7sk4hb1,conventional,,../data/raw/scaled_stimuli/4_request_piano.wav,,,request,piano,4.0,conventional,,,,No,Prefer not to say,No,7,123213,No
24,,448.17499999771826,html-button-response,24,153436,0.0-5.0-9.0-1.0,u9v7sk4hb1,u9v7sk4hb1,conventional,,,1.0,,request,piano,4.0,conventional,,,Non-Request,Yes,Prefer not to say,No,7,123213,No
25,,,audio-button-response,25,155836,0.0-5.0-10.0-0.0,u9v7sk4hb1,u9v7sk4hb1,conventional,,../data/raw/scaled_stimuli/4_question_Spanish.wav,,,question,Spanish,4.0,conventional,,,,No,Prefer not to say,No,7,123213,No
26,,454.6550000086427,html-button-response,26,156548,0.0-5.0-10.0-1.0,u9v7sk4hb1,u9v7sk4hb1,conventional,,,1.0,,question,Spanish,4.0,conventional,,,Non-Request,No,Prefer not to say,No,7,123213,No
27,,,audio-button-response,27,158449,0.0-5.0-11.0-0.0,u9v7sk4hb1,u9v7sk4hb1,conventional,,../data/raw/scaled_stimuli/4_request_Spanish.wav,,,request,Spanish,4.0,conventional,,,,No,Prefer not to say,No,7,123213,No
28,,390.3599999903236,html-button-response,28,159093,0.0-5.0-11.0-1.0,u9v7sk4hb1,u9v7sk4hb1,conventional,,,1.0,,request,Spanish,4.0,conventional,,,Non-Request,Yes,Prefer not to say,No,7,123213,No
29,,,audio-button-response,29,161148,0.0-6.0-0.0-0.0,u9v7sk4hb1,u9v7sk4hb1,conventional,,../data/raw/scaled_stimuli/24_request_Spanish.wav,,,request,Spanish,24.0,conventional,,,,No,Prefer not to say,No,7,123213,No
30,,560.1599999936299,html-button-response,30,161963,0.0-6.0-0.0-1.0,u9v7sk4hb1,u9v7sk4hb1,conventional,,,1.0,,request,Spanish,24.0,conventional,,,Non-Request,No,Prefer not to say,No,7,123213,No
31,,,audio-button-response,31,163772,0.0-6.0-1.0-0.0,u9v7sk4hb1,u9v7sk4hb1,conventional,,../data/raw/scaled_stimuli/24_question_window.wav,,,question,window,24.0,conventional,,,,No,Prefer not to say,No,7,123213,No
32,,615.3500000073109,html-button-response,32,164639,0.0-6.0-1.0-1.0,u9v7sk4hb1,u9v7sk4hb1,conventional,,,0.0,,question,window,24.0,conventional,,,Request,No,Prefer not to say,No,7,123213,No
33,,,audio-button-response,33,166634,0.0-6.0-2.0-0.0,u9v7sk4hb1,u9v7sk4hb1,conventional,,../data/raw/scaled_stimuli/24_request_window.wav,,,request,window,24.0,conventional,,,,No,Prefer not to say,No,7,123213,No
34,,483.19999998784624,html-button-response,34,167374,0.0-6.0-2.0-1.0,u9v7sk4hb1,u9v7sk4hb1,conventional,,,0.0,,request,window,24.0,conventional,,,Request,Yes,Prefer not to say,No,7,123213,No
35,,,audio-button-response,35,168892,0.0-6.0-3.0-0.0,u9v7sk4hb1,u9v7sk4hb1,conventional,,../data/raw/scaled_stimuli/24_request_door.wav,,,request,door,24.0,conventional,,,,No,Prefer not to say,No,7,123213,No
36,,541.9049999909475,html-button-response,36,169690,0.0-6.0-3.0-1.0,u9v7sk4hb1,u9v7sk4hb1,conventional,,,0.0,,request,door,24.0,conventional,,,Request,No,Prefer not to say,No,7,123213,No
37,,,audio-button-response,37,171464,0.0-6.0-4.0-0.0,u9v7sk4hb1,u9v7sk4hb1,conventional,,../data/raw/scaled_stimuli/24_question_piano.wav,,,question,piano,24.0,conventional,,,,No,Prefer not to say,No,7,123213,No
38,,436.77000000025146,html-button-response,38,172157,0.0-6.0-4.0-1.0,u9v7sk4hb1,u9v7sk4hb1,conventional,,,0.0,,question,piano,24.0,conventional,,,Request,No,Prefer not to say,No,7,123213,No
39,,,audio-button-response,39,173757,0.0-6.0-5.0-0.0,u9v7sk4hb1,u9v7sk4hb1,conventional,,../data/raw/scaled_stimuli/24_question_door.wav,,,question,door,24.0,conventional,,,,No,Prefer not to say,No,7,123213,No
40,,318.0599999905098,html-button-response,40,174331,0.0-6.0-5.0-1.0,u9v7sk4hb1,u9v7sk4hb1,conventional,,,0.0,,question,door,24.0,conventional,,,Request,Yes,Prefer not to say,No,7,123213,No
41,,,audio-button-response,41,176207,0.0-6.0-6.0-0.0,u9v7sk4hb1,u9v7sk4hb1,conventional,,../data/raw/scaled_stimuli/24_question_box.wav,,,question,box,24.0,conventional,,,,No,Prefer not to say,No,7,123213,No
42,,92798.3349999995,html-button-response,42,269264,0.0-6.0-6.0-1.0,u9v7sk4hb1,u9v7sk4hb1,conventional,,,1.0,,question,box,24.0,conventional,,,Non-Request,No,Prefer not to say,No,7,123213,No
43,,,audio-button-response,43,271240,0.0-6.0-7.0-0.0,u9v7sk4hb1,u9v7sk4hb1,conventional,,../data/raw/scaled_stimuli/24_question_Spanish.wav,,,question,Spanish,24.0,conventional,,,,No,Prefer not to say,No,7,123213,No
44,,355.81999999703834,html-button-response,44,271851,0.0-6.0-7.0-1.0,u9v7sk4hb1,u9v7sk4hb1,conventional,,,1.0,,question,Spanish,24.0,conventional,,,Non-Request,Yes,Prefer not to say,No,7,123213,No
45,,,audio-button-response,45,273475,0.0-6.0-8.0-0.0,u9v7sk4hb1,u9v7sk4hb1,conventional,,../data/raw/scaled_stimuli/24_request_piano.wav,,,request,piano,24.0,conventional,,,,No,Prefer not to say,No,7,123213,No
46,,417.53499998594634,html-button-response,46,274144,0.0-6.0-8.0-1.0,u9v7sk4hb1,u9v7sk4hb1,conventional,,,1.0,,request,piano,24.0,conventional,,,Non-Request,Yes,Prefer not to say,No,7,123213,No
47,,,audio-button-response,47,276000,0.0-6.0-9.0-0.0,u9v7sk4hb1,u9v7sk4hb1,conventional,,../data/raw/scaled_stimuli/24_request_temp.wav,,,request,temp,24.0,conventional,,,,No,Prefer not to say,No,7,123213,No
48,,383.8850000174716,html-button-response,48,276639,0.0-6.0-9.0-1.0,u9v7sk4hb1,u9v7sk4hb1,conventional,,,1.0,,request,temp,24.0,conventional,,,Non-Request,No,Prefer not to say,No,7,123213,No
49,,,audio-button-response,49,278682,0.0-6.0-10.0-0.0,u9v7sk4hb1,u9v7sk4hb1,conventional,,../data/raw/scaled_stimuli/24_request_box.wav,,,request,box,24.0,conventional,,,,No,Prefer not to say,No,7,123213,No
50,,412.66999999061227,html-button-response,50,279350,0.0-6.0-10.0-1.0,u9v7sk4hb1,u9v7sk4hb1,conventional,,,1.0,,request,box,24.0,conventional,,,Non-Request,Yes,Prefer not to say,No,7,123213,No
51,,,audio-button-response,51,281172,0.0-6.0-11.0-0.0,u9v7sk4hb1,u9v7sk4hb1,conventional,,../data/raw/scaled_stimuli/24_question_temp.wav,,,question,temp,24.0,conventional,,,,No,Prefer not to say,No,7,123213,No
52,,357.560000004014,html-button-response,52,281786,0.0-6.0-11.0-1.0,u9v7sk4hb1,u9v7sk4hb1,conventional,,,1.0,,question,temp,24.0,conventional,,,Non-Request,Yes,Prefer not to say,No,7,123213,No
53,,,audio-button-response,53,283605,0.0-7.0-0.0-0.0,u9v7sk4hb1,u9v7sk4hb1,conventional,,../data/raw/scaled_stimuli/18_question_box.wav,,,question,box,18.0,conventional,,,,No,Prefer not to say,No,7,123213,No
54,,456.9649999903049,html-button-response,54,284318,0.0-7.0-0.0-1.0,u9v7sk4hb1,u9v7sk4hb1,conventional,,,1.0,,question,box,18.0,conventional,,,Non-Request,No,Prefer not to say,No,7,123213,No
55,,,audio-button-response,55,286031,0.0-7.0-1.0-0.0,u9v7sk4hb1,u9v7sk4hb1,conventional,,../data/raw/scaled_stimuli/18_request_Spanish.wav,,,request,Spanish,18.0,conventional,,,,No,Prefer not to say,No,7,123213,No
56,,466.5099999983795,html-button-response,56,286753,0.0-7.0-1.0-1.0,u9v7sk4hb1,u9v7sk4hb1,conventional,,,1.0,,request,Spanish,18.0,conventional,,,Non-Request,No,Prefer not to say,No,7,123213,No
57,,,audio-button-response,57,288527,0.0-7.0-2.0-0.0,u9v7sk4hb1,u9v7sk4hb1,conventional,,../data/raw/scaled_stimuli/18_question_Spanish.wav,,,question,Spanish,18.0,conventional,,,,No,Prefer not to say,No,7,123213,No
58,,494.50999998953193,html-button-response,58,289278,0.0-7.0-2.0-1.0,u9v7sk4hb1,u9v7sk4hb1,conventional,,,1.0,,question,Spanish,18.0,conventional,,,Non-Request,Yes,Prefer not to say,No,7,123213,No
59,,,audio-button-response,59,290896,0.0-7.0-3.0-0.0,u9v7sk4hb1,u9v7sk4hb1,conventional,,../data/raw/scaled_stimuli/18_question_temp.wav,,,question,temp,18.0,conventional,,,,No,Prefer not to say,No,7,123213,No
60,,499.3499999982305,html-button-response,60,291651,0.0-7.0-3.0-1.0,u9v7sk4hb1,u9v7sk4hb1,conventional,,,1.0,,question,temp,18.0,conventional,,,Non-Request,No,Prefer not to say,No,7,123213,No
61,,,audio-button-response,61,293316,0.0-7.0-4.0-0.0,u9v7sk4hb1,u9v7sk4hb1,conventional,,../data/raw/scaled_stimuli/18_request_box.wav,,,request,box,18.0,conventional,,,,No,Prefer not to say,No,7,123213,No
62,,490.7550000061746,html-button-response,62,294063,0.0-7.0-4.0-1.0,u9v7sk4hb1,u9v7sk4hb1,conventional,,,1.0,,request,box,18.0,conventional,,,Non-Request,Yes,Prefer not to say,No,7,123213,No
63,,,audio-button-response,63,295604,0.0-7.0-5.0-0.0,u9v7sk4hb1,u9v7sk4hb1,conventional,,../data/raw/scaled_stimuli/18_request_door.wav,,,request,door,18.0,conventional,,,,No,Prefer not to say,No,7,123213,No
64,,590.8499999786727,html-button-response,64,296451,0.0-7.0-5.0-1.0,u9v7sk4hb1,u9v7sk4hb1,conventional,,,1.0,,request,door,18.0,conventional,,,Non-Request,No,Prefer not to say,No,7,123213,No
65,,,audio-button-response,65,298007,0.0-7.0-6.0-0.0,u9v7sk4hb1,u9v7sk4hb1,conventional,,../data/raw/scaled_stimuli/18_question_door.wav,,,question,door,18.0,conventional,,,,No,Prefer not to say,No,7,123213,No
66,,54.64000001666136,html-button-response,66,298318,0.0-7.0-6.0-1.0,u9v7sk4hb1,u9v7sk4hb1,conventional,,,1.0,,question,door,18.0,conventional,,,Non-Request,Yes,Prefer not to say,No,7,123213,No
67,,,audio-button-response,67,299964,0.0-7.0-7.0-0.0,u9v7sk4hb1,u9v7sk4hb1,conventional,,../data/raw/scaled_stimuli/18_request_piano.wav,,,request,piano,18.0,conventional,,,,No,Prefer not to say,No,7,123213,No
68,,84.1599999985192,html-button-response,68,300303,0.0-7.0-7.0-1.0,u9v7sk4hb1,u9v7sk4hb1,conventional,,,1.0,,request,piano,18.0,conventional,,,Non-Request,No,Prefer not to say,No,7,123213,No
69,,,audio-button-response,69,301839,0.0-7.0-8.0-0.0,u9v7sk4hb1,u9v7sk4hb1,conventional,,../data/raw/scaled_stimuli/18_request_window.wav,,,request,window,18.0,conventional,,,,No,Prefer not to say,No,7,123213,No
70,,906.6250000032596,html-button-response,70,302999,0.0-7.0-8.0-1.0,u9v7sk4hb1,u9v7sk4hb1,conventional,,,1.0,,request,window,18.0,conventional,,,Non-Request,No,Prefer not to say,No,7,123213,No
71,,,audio-button-response,71,304463,0.0-7.0-9.0-0.0,u9v7sk4hb1,u9v7sk4hb1,conventional,,../data/raw/scaled_stimuli/18_question_piano.wav,,,question,piano,18.0,conventional,,,,No,Prefer not to say,No,7,123213,No
72,,860.7650000194552,html-button-response,72,305579,0.0-7.0-9.0-1.0,u9v7sk4hb1,u9v7sk4hb1,conventional,,,1.0,,question,piano,18.0,conventional,,,Non-Request,Yes,Prefer not to say,No,7,123213,No
73,,,audio-button-response,73,307250,0.0-7.0-10.0-0.0,u9v7sk4hb1,u9v7sk4hb1,conventional,,../data/raw/scaled_stimuli/18_question_window.wav,,,question,window,18.0,conventional,,,,No,Prefer not to say,No,7,123213,No
74,,422.6550000021234,html-button-response,74,307928,0.0-7.0-10.0-1.0,u9v7sk4hb1,u9v7sk4hb1,conventional,,,1.0,,question,window,18.0,conventional,,,Non-Request,Yes,Prefer not to say,No,7,123213,No
75,,,audio-button-response,75,309734,0.0-7.0-11.0-0.0,u9v7sk4hb1,u9v7sk4hb1,conventional,,../data/raw/scaled_stimuli/18_request_temp.wav,,,request,temp,18.0,conventional,,,,No,Prefer not to say,No,7,123213,No
76,,440.7749999954831,html-button-response,76,310430,0.0-7.0-11.0-1.0,u9v7sk4hb1,u9v7sk4hb1,conventional,,,1.0,,request,temp,18.0,conventional,,,Non-Request,Yes,Prefer not to say,No,7,123213,No
77,,,audio-button-response,77,312230,0.0-8.0-0.0-0.0,u9v7sk4hb1,u9v7sk4hb1,conventional,,../data/raw/scaled_stimuli/3_question_window.wav,,,question,window,3.0,conventional,,,,No,Prefer not to say,No,7,123213,No
78,,385.4649999993853,html-button-response,78,312871,0.0-8.0-0.0-1.0,u9v7sk4hb1,u9v7sk4hb1,conventional,,,1.0,,question,window,3.0,conventional,,,Non-Request,No,Prefer not to say,No,7,123213,No
79,,,audio-button-response,79,314715,0.0-8.0-1.0-0.0,u9v7sk4hb1,u9v7sk4hb1,conventional,,../data/raw/scaled_stimuli/3_request_Spanish.wav,,,request,Spanish,3.0,conventional,,,,No,Prefer not to say,No,7,123213,No
80,,368.1649999925867,html-button-response,80,315338,0.0-8.0-1.0-1.0,u9v7sk4hb1,u9v7sk4hb1,conventional,,,1.0,,request,Spanish,3.0,conventional,,,Non-Request,No,Prefer not to say,No,7,123213,No
81,,,audio-button-response,81,316764,0.0-8.0-2.0-0.0,u9v7sk4hb1,u9v7sk4hb1,conventional,,../data/raw/scaled_stimuli/3_request_piano.wav,,,request,piano,3.0,conventional,,,,No,Prefer not to say,No,7,123213,No
82,,280.23500001290813,html-button-response,82,317300,0.0-8.0-2.0-1.0,u9v7sk4hb1,u9v7sk4hb1,conventional,,,1.0,,request,piano,3.0,conventional,,,Non-Request,No,Prefer not to say,No,7,123213,No
83,,,audio-button-response,83,319155,0.0-8.0-3.0-0.0,u9v7sk4hb1,u9v7sk4hb1,conventional,,../data/raw/scaled_stimuli/3_request_box.wav,,,request,box,3.0,conventional,,,,No,Prefer not to say,No,7,123213,No
84,,321.05500000761816,html-button-response,84,319734,0.0-8.0-3.0-1.0,u9v7sk4hb1,u9v7sk4hb1,conventional,,,1.0,,request,box,3.0,conventional,,,Non-Request,No,Prefer not to say,No,7,123213,No
85,,,audio-button-response,85,322528,0.0-8.0-4.0-0.0,u9v7sk4hb1,u9v7sk4hb1,conventional,,../data/raw/scaled_stimuli/3_question_Spanish.wav,,,question,Spanish,3.0,conventional,,,,No,Prefer not to say,No,7,123213,No
86,,59843.69000000879,html-button-response,86,382626,0.0-8.0-4.0-1.0,u9v7sk4hb1,u9v7sk4hb1,conventional,,,1.0,,question,Spanish,3.0,conventional,,,Non-Request,Yes,Prefer not to say,No,7,123213,No
87,,,audio-button-response,87,384624,0.0-8.0-5.0-0.0,u9v7sk4hb1,u9v7sk4hb1,conventional,,../data/raw/scaled_stimuli/3_request_temp.wav,,,request,temp,3.0,conventional,,,,No,Prefer not to say,No,7,123213,No
88,,347.52000001026323,html-button-response,88,385228,0.0-8.0-5.0-1.0,u9v7sk4hb1,u9v7sk4hb1,conventional,,,1.0,,request,temp,3.0,conventional,,,Non-Request,No,Prefer not to say,No,7,123213,No
89,,,audio-button-response,89,386784,0.0-8.0-6.0-0.0,u9v7sk4hb1,u9v7sk4hb1,conventional,,../data/raw/scaled_stimuli/3_request_door.wav,,,request,door,3.0,conventional,,,,No,Prefer not to say,No,7,123213,No
90,,402.1749999956228,html-button-response,90,387442,0.0-8.0-6.0-1.0,u9v7sk4hb1,u9v7sk4hb1,conventional,,,1.0,,request,door,3.0,conventional,,,Non-Request,No,Prefer not to say,No,7,123213,No
91,,,audio-button-response,91,389123,0.0-8.0-7.0-0.0,u9v7sk4hb1,u9v7sk4hb1,conventional,,../data/raw/scaled_stimuli/3_question_piano.wav,,,question,piano,3.0,conventional,,,,No,Prefer not to say,No,7,123213,No
92,,1055.179999995744,html-button-response,92,390434,0.0-8.0-7.0-1.0,u9v7sk4hb1,u9v7sk4hb1,conventional,,,1.0,,question,piano,3.0,conventional,,,Non-Request,Yes,Prefer not to say,No,7,123213,No
93,,,audio-button-response,93,392241,0.0-8.0-8.0-0.0,u9v7sk4hb1,u9v7sk4hb1,conventional,,../data/raw/scaled_stimuli/3_question_box.wav,,,question,box,3.0,conventional,,,,No,Prefer not to say,No,7,123213,No
94,,743.8299999921582,html-button-response,94,393236,0.0-8.0-8.0-1.0,u9v7sk4hb1,u9v7sk4hb1,conventional,,,1.0,,question,box,3.0,conventional,,,Non-Request,Yes,Prefer not to say,No,7,123213,No
95,,,audio-button-response,95,395033,0.0-8.0-9.0-0.0,u9v7sk4hb1,u9v7sk4hb1,conventional,,../data/raw/scaled_stimuli/3_request_window.wav,,,request,window,3.0,conventional,,,,No,Prefer not to say,No,7,123213,No
96,,368.6400000005961,html-button-response,96,395658,0.0-8.0-9.0-1.0,u9v7sk4hb1,u9v7sk4hb1,conventional,,,1.0,,request,window,3.0,conventional,,,Non-Request,Yes,Prefer not to say,No,7,123213,No
97,,,audio-button-response,97,397337,0.0-8.0-10.0-0.0,u9v7sk4hb1,u9v7sk4hb1,conventional,,../data/raw/scaled_stimuli/3_question_door.wav,,,question,door,3.0,conventional,,,,No,Prefer not to say,No,7,123213,No
98,,5063.0050000036135,html-button-response,98,402652,0.0-8.0-10.0-1.0,u9v7sk4hb1,u9v7sk4hb1,conventional,,,1.0,,question,door,3.0,conventional,,,Non-Request,Yes,Prefer not to say,No,7,123213,No
99,,,audio-button-response,99,404437,0.0-8.0-11.0-0.0,u9v7sk4hb1,u9v7sk4hb1,conventional,,../data/raw/scaled_stimuli/3_question_temp.wav,,,question,temp,3.0,conventional,,,,No,Prefer not to say,No,7,123213,No
100,,627.1499999857043,html-button-response,100,405321,0.0-8.0-11.0-1.0,u9v7sk4hb1,u9v7sk4hb1,conventional,,,1.0,,question,temp,3.0,conventional,,,Non-Request,Yes,Prefer not to say,No,7,123213,No
101,,,audio-button-response,101,407433,0.0-9.0-0.0-0.0,u9v7sk4hb1,u9v7sk4hb1,conventional,,../data/raw/scaled_stimuli/25_question_piano.wav,,,question,piano,25.0,conventional,,,,No,Prefer not to say,No,7,123213,No
102,,1466.7649999901187,html-button-response,102,409155,0.0-9.0-0.0-1.0,u9v7sk4hb1,u9v7sk4hb1,conventional,,,1.0,,question,piano,25.0,conventional,,,Non-Request,No,Prefer not to say,No,7,123213,No
103,,,audio-button-response,103,410730,0.0-9.0-1.0-0.0,u9v7sk4hb1,u9v7sk4hb1,conventional,,../data/raw/scaled_stimuli/25_request_door.wav,,,request,door,25.0,conventional,,,,No,Prefer not to say,No,7,123213,No
104,,1068.5450000164562,html-button-response,104,412054,0.0-9.0-1.0-1.0,u9v7sk4hb1,u9v7sk4hb1,conventional,,,1.0,,request,door,25.0,conventional,,,Non-Request,No,Prefer not to say,No,7,123213,No
105,,,audio-button-response,105,413859,0.0-9.0-2.0-0.0,u9v7sk4hb1,u9v7sk4hb1,conventional,,../data/raw/scaled_stimuli/25_question_door.wav,,,question,door,25.0,conventional,,,,No,Prefer not to say,No,7,123213,No
106,,463.6250000039581,html-button-response,106,414579,0.0-9.0-2.0-1.0,u9v7sk4hb1,u9v7sk4hb1,conventional,,,1.0,,question,door,25.0,conventional,,,Non-Request,Yes,Prefer not to say,No,7,123213,No
107,,,audio-button-response,107,416773,0.0-9.0-3.0-0.0,u9v7sk4hb1,u9v7sk4hb1,conventional,,../data/raw/scaled_stimuli/25_question_box.wav,,,question,box,25.0,conventional,,,,No,Prefer not to say,No,7,123213,No
108,,356.2650000094436,html-button-response,108,417386,0.0-9.0-3.0-1.0,u9v7sk4hb1,u9v7sk4hb1,conventional,,,1.0,,question,box,25.0,conventional,,,Non-Request,No,Prefer not to say,No,7,123213,No
109,,,audio-button-response,109,419275,0.0-9.0-4.0-0.0,u9v7sk4hb1,u9v7sk4hb1,conventional,,../data/raw/scaled_stimuli/25_request_temp.wav,,,request,temp,25.0,conventional,,,,No,Prefer not to say,No,7,123213,No
110,,435.235000011744,html-button-response,110,419966,0.0-9.0-4.0-1.0,u9v7sk4hb1,u9v7sk4hb1,conventional,,,1.0,,request,temp,25.0,conventional,,,Non-Request,No,Prefer not to say,No,7,123213,No
111,,,audio-button-response,111,421969,0.0-9.0-5.0-0.0,u9v7sk4hb1,u9v7sk4hb1,conventional,,../data/raw/scaled_stimuli/25_question_Spanish.wav,,,question,Spanish,25.0,conventional,,,,No,Prefer not to say,No,7,123213,No
112,,559.0500000107569,html-button-response,112,422784,0.0-9.0-5.0-1.0,u9v7sk4hb1,u9v7sk4hb1,conventional,,,1.0,,question,Spanish,25.0,conventional,,,Non-Request,No,Prefer not to say,No,7,123213,No
113,,,audio-button-response,113,424663,0.0-9.0-6.0-0.0,u9v7sk4hb1,u9v7sk4hb1,conventional,,../data/raw/scaled_stimuli/25_request_box.wav,,,request,box,25.0,conventional,,,,No,Prefer not to say,No,7,123213,No
114,,667.1400000050197,html-button-response,114,425586,0.0-9.0-6.0-1.0,u9v7sk4hb1,u9v7sk4hb1,conventional,,,1.0,,request,box,25.0,conventional,,,Non-Request,Yes,Prefer not to say,No,7,123213,No
115,,,audio-button-response,115,428151,0.0-9.0-7.0-0.0,u9v7sk4hb1,u9v7sk4hb1,conventional,,../data/raw/scaled_stimuli/25_question_window.wav,,,question,window,25.0,conventional,,,,No,Prefer not to say,No,7,123213,No
116,,1471.1349999997767,html-button-response,116,429874,0.0-9.0-7.0-1.0,u9v7sk4hb1,u9v7sk4hb1,conventional,,,1.0,,question,window,25.0,conventional,,,Non-Request,No,Prefer not to say,No,7,123213,No
117,,,audio-button-response,117,431460,0.0-9.0-8.0-0.0,u9v7sk4hb1,u9v7sk4hb1,conventional,,../data/raw/scaled_stimuli/25_question_temp.wav,,,question,temp,25.0,conventional,,,,No,Prefer not to say,No,7,123213,No
118,,360.66499998560175,html-button-response,118,432076,0.0-9.0-8.0-1.0,u9v7sk4hb1,u9v7sk4hb1,conventional,,,1.0,,question,temp,25.0,conventional,,,Non-Request,Yes,Prefer not to say,No,7,123213,No
119,,,audio-button-response,119,433428,0.0-9.0-9.0-0.0,u9v7sk4hb1,u9v7sk4hb1,conventional,,../data/raw/scaled_stimuli/25_request_piano.wav,,,request,piano,25.0,conventional,,,,No,Prefer not to say,No,7,123213,No
120,,698.3750000072177,html-button-response,120,434383,0.0-9.0-9.0-1.0,u9v7sk4hb1,u9v7sk4hb1,conventional,,,1.0,,request,piano,25.0,conventional,,,Non-Request,Yes,Prefer not to say,No,7,123213,No
121,,,audio-button-response,121,436192,0.0-9.0-10.0-0.0,u9v7sk4hb1,u9v7sk4hb1,conventional,,../data/raw/scaled_stimuli/25_request_window.wav,,,request,window,25.0,conventional,,,,No,Prefer not to say,No,7,123213,No
122,,350.68000000319444,html-button-response,122,436794,0.0-9.0-10.0-1.0,u9v7sk4hb1,u9v7sk4hb1,conventional,,,1.0,,request,window,25.0,conventional,,,Non-Request,Yes,Prefer not to say,No,7,123213,No
123,,,audio-button-response,123,438502,0.0-9.0-11.0-0.0,u9v7sk4hb1,u9v7sk4hb1,conventional,,../data/raw/scaled_stimuli/25_request_Spanish.wav,,,request,Spanish,25.0,conventional,,,,No,Prefer not to say,No,7,123213,No
124,,417.6750000042375,html-button-response,124,439175,0.0-9.0-11.0-1.0,u9v7sk4hb1,u9v7sk4hb1,conventional,,,1.0,,request,Spanish,25.0,conventional,,,Non-Request,Yes,Prefer not to say,No,7,123213,No
125,,,audio-button-response,125,440470,0.0-10.0-0.0-0.0,u9v7sk4hb1,u9v7sk4hb1,conventional,,../data/raw/scaled_stimuli/7_request_piano.wav,,,request,piano,7.0,conventional,,,,No,Prefer not to say,No,7,123213,No
126,,326.7000000050757,html-button-response,126,441048,0.0-10.0-0.0-1.0,u9v7sk4hb1,u9v7sk4hb1,conventional,,,1.0,,request,piano,7.0,conventional,,,Non-Request,No,Prefer not to say,No,7,123213,No
127,,,audio-button-response,127,442380,0.0-10.0-1.0-0.0,u9v7sk4hb1,u9v7sk4hb1,conventional,,../data/raw/scaled_stimuli/7_request_door.wav,,,request,door,7.0,conventional,,,,No,Prefer not to say,No,7,123213,No
128,,372.47500001103623,html-button-response,128,443008,0.0-10.0-1.0-1.0,u9v7sk4hb1,u9v7sk4hb1,conventional,,,1.0,,request,door,7.0,conventional,,,Non-Request,No,Prefer not to say,No,7,123213,No
129,,,audio-button-response,129,444760,0.0-10.0-2.0-0.0,u9v7sk4hb1,u9v7sk4hb1,conventional,,../data/raw/scaled_stimuli/7_question_temp.wav,,,question,temp,7.0,conventional,,,,No,Prefer not to say,No,7,123213,No
130,,428.87500001234,html-button-response,130,445445,0.0-10.0-2.0-1.0,u9v7sk4hb1,u9v7sk4hb1,conventional,,,1.0,,question,temp,7.0,conventional,,,Non-Request,No,Prefer not to say,No,7,123213,No
131,,,audio-button-response,131,447349,0.0-10.0-3.0-0.0,u9v7sk4hb1,u9v7sk4hb1,conventional,,../data/raw/scaled_stimuli/7_question_box.wav,,,question,box,7.0,conventional,,,,No,Prefer not to say,No,7,123213,No
132,,412.09500000695704,html-button-response,132,448019,0.0-10.0-3.0-1.0,u9v7sk4hb1,u9v7sk4hb1,conventional,,,1.0,,question,box,7.0,conventional,,,Non-Request,No,Prefer not to say,No,7,123213,No
133,,,audio-button-response,133,449596,0.0-10.0-4.0-0.0,u9v7sk4hb1,u9v7sk4hb1,conventional,,../data/raw/scaled_stimuli/7_request_box.wav,,,request,box,7.0,conventional,,,,No,Prefer not to say,No,7,123213,No
134,,378.5149999894202,html-button-response,134,450230,0.0-10.0-4.0-1.0,u9v7sk4hb1,u9v7sk4hb1,conventional,,,1.0,,request,box,7.0,conventional,,,Non-Request,Yes,Prefer not to say,No,7,123213,No
135,,,audio-button-response,135,451767,0.0-10.0-5.0-0.0,u9v7sk4hb1,u9v7sk4hb1,conventional,,../data/raw/scaled_stimuli/7_question_window.wav,,,question,window,7.0,conventional,,,,No,Prefer not to say,No,7,123213,No
136,,468.3749999967403,html-button-response,136,452491,0.0-10.0-5.0-1.0,u9v7sk4hb1,u9v7sk4hb1,conventional,,,1.0,,question,window,7.0,conventional,,,Non-Request,No,Prefer not to say,No,7,123213,No
137,,,audio-button-response,137,454228,0.0-10.0-6.0-0.0,u9v7sk4hb1,u9v7sk4hb1,conventional,,../data/raw/scaled_stimuli/7_question_door.wav,,,question,door,7.0,conventional,,,,No,Prefer not to say,No,7,123213,No
138,,524.0000000048893,html-button-response,138,455008,0.0-10.0-6.0-1.0,u9v7sk4hb1,u9v7sk4hb1,conventional,,,1.0,,question,door,7.0,conventional,,,Non-Request,Yes,Prefer not to say,No,7,123213,No
139,,,audio-button-response,139,456644,0.0-10.0-7.0-0.0,u9v7sk4hb1,u9v7sk4hb1,conventional,,../data/raw/scaled_stimuli/7_request_Spanish.wav,,,request,Spanish,7.0,conventional,,,,No,Prefer not to say,No,7,123213,No
140,,403.37000001454726,html-button-response,140,457303,0.0-10.0-7.0-1.0,u9v7sk4hb1,u9v7sk4hb1,conventional,,,1.0,,request,Spanish,7.0,conventional,,,Non-Request,No,Prefer not to say,No,7,123213,No
141,,,audio-button-response,141,459366,0.0-10.0-8.0-0.0,u9v7sk4hb1,u9v7sk4hb1,conventional,,../data/raw/scaled_stimuli/7_question_Spanish.wav,,,question,Spanish,7.0,conventional,,,,No,Prefer not to say,No,7,123213,No
142,,385.1849999919068,html-button-response,142,460007,0.0-10.0-8.0-1.0,u9v7sk4hb1,u9v7sk4hb1,conventional,,,1.0,,question,Spanish,7.0,conventional,,,Non-Request,Yes,Prefer not to say,No,7,123213,No
143,,,audio-button-response,143,461374,0.0-10.0-9.0-0.0,u9v7sk4hb1,u9v7sk4hb1,conventional,,../data/raw/scaled_stimuli/7_request_window.wav,,,request,window,7.0,conventional,,,,No,Prefer not to say,No,7,123213,No
144,,647.4100000050386,html-button-response,144,462278,0.0-10.0-9.0-1.0,u9v7sk4hb1,u9v7sk4hb1,conventional,,,1.0,,request,window,7.0,conventional,,,Non-Request,Yes,Prefer not to say,No,7,123213,No
145,,,audio-button-response,145,463656,0.0-10.0-10.0-0.0,u9v7sk4hb1,u9v7sk4hb1,conventional,,../data/raw/scaled_stimuli/7_request_temp.wav,,,request,temp,7.0,conventional,,,,No,Prefer not to say,No,7,123213,No
146,,547.4749999993946,html-button-response,146,464459,0.0-10.0-10.0-1.0,u9v7sk4hb1,u9v7sk4hb1,conventional,,,1.0,,request,temp,7.0,conventional,,,Non-Request,Yes,Prefer not to say,No,7,123213,No
147,,,audio-button-response,147,466082,0.0-10.0-11.0-0.0,u9v7sk4hb1,u9v7sk4hb1,conventional,,../data/raw/scaled_stimuli/7_question_piano.wav,,,question,piano,7.0,conventional,,,,No,Prefer not to say,No,7,123213,No
148,,557.8850000165403,html-button-response,148,466896,0.0-10.0-11.0-1.0,u9v7sk4hb1,u9v7sk4hb1,conventional,,,1.0,,question,piano,7.0,conventional,,,Non-Request,Yes,Prefer not to say,No,7,123213,No
149,,,audio-button-response,149,468544,0.0-11.0-0.0-0.0,u9v7sk4hb1,u9v7sk4hb1,conventional,,../data/raw/scaled_stimuli/2_question_door.wav,,,question,door,2.0,conventional,,,,No,Prefer not to say,No,7,123213,No
150,,476.38999999617226,html-button-response,150,469276,0.0-11.0-0.0-1.0,u9v7sk4hb1,u9v7sk4hb1,conventional,,,1.0,,question,door,2.0,conventional,,,Non-Request,No,Prefer not to say,No,7,123213,No
151,,,audio-button-response,151,471818,0.0-11.0-1.0-0.0,u9v7sk4hb1,u9v7sk4hb1,conventional,,../data/raw/scaled_stimuli/2_question_Spanish.wav,,,question,Spanish,2.0,conventional,,,,No,Prefer not to say,No,7,123213,No
152,,435.4100000055042,html-button-response,152,472509,0.0-11.0-1.0-1.0,u9v7sk4hb1,u9v7sk4hb1,conventional,,,1.0,,question,Spanish,2.0,conventional,,,Non-Request,No,Prefer not to say,No,7,123213,No
153,,,audio-button-response,153,474779,0.0-11.0-2.0-0.0,u9v7sk4hb1,u9v7sk4hb1,conventional,,../data/raw/scaled_stimuli/2_request_Spanish.wav,,,request,Spanish,2.0,conventional,,,,No,Prefer not to say,No,7,123213,No
154,,410.4649999935645,html-button-response,154,475445,0.0-11.0-2.0-1.0,u9v7sk4hb1,u9v7sk4hb1,conventional,,,1.0,,request,Spanish,2.0,conventional,,,Non-Request,Yes,Prefer not to say,No,7,123213,No
155,,,audio-button-response,155,477106,0.0-11.0-3.0-0.0,u9v7sk4hb1,u9v7sk4hb1,conventional,,../data/raw/scaled_stimuli/2_question_window.wav,,,question,window,2.0,conventional,,,,No,Prefer not to say,No,7,123213,No
156,,543.6049999843817,html-button-response,156,477906,0.0-11.0-3.0-1.0,u9v7sk4hb1,u9v7sk4hb1,conventional,,,1.0,,question,window,2.0,conventional,,,Non-Request,No,Prefer not to say,No,7,123213,No
157,,,audio-button-response,157,479887,0.0-11.0-4.0-0.0,u9v7sk4hb1,u9v7sk4hb1,conventional,,../data/raw/scaled_stimuli/2_request_door.wav,,,request,door,2.0,conventional,,,,No,Prefer not to say,No,7,123213,No
158,,542.6250000018626,html-button-response,158,480686,0.0-11.0-4.0-1.0,u9v7sk4hb1,u9v7sk4hb1,conventional,,,1.0,,request,door,2.0,conventional,,,Non-Request,Yes,Prefer not to say,No,7,123213,No
159,,,audio-button-response,159,483005,0.0-11.0-5.0-0.0,u9v7sk4hb1,u9v7sk4hb1,conventional,,../data/raw/scaled_stimuli/2_question_box.wav,,,question,box,2.0,conventional,,,,No,Prefer not to say,No,7,123213,No
160,,545.2000000223052,html-button-response,160,483806,0.0-11.0-5.0-1.0,u9v7sk4hb1,u9v7sk4hb1,conventional,,,1.0,,question,box,2.0,conventional,,,Non-Request,No,Prefer not to say,No,7,123213,No
161,,,audio-button-response,161,485559,0.0-11.0-6.0-0.0,u9v7sk4hb1,u9v7sk4hb1,conventional,,../data/raw/scaled_stimuli/2_question_piano.wav,,,question,piano,2.0,conventional,,,,No,Prefer not to say,No,7,123213,No
162,,633.639999985462,html-button-response,162,486448,0.0-11.0-6.0-1.0,u9v7sk4hb1,u9v7sk4hb1,conventional,,,1.0,,question,piano,2.0,conventional,,,Non-Request,No,Prefer not to say,No,7,123213,No
163,,,audio-button-response,163,488107,0.0-11.0-7.0-0.0,u9v7sk4hb1,u9v7sk4hb1,conventional,,../data/raw/scaled_stimuli/2_request_window.wav,,,request,window,2.0,conventional,,,,No,Prefer not to say,No,7,123213,No
164,,451.1150000034832,html-button-response,164,488814,0.0-11.0-7.0-1.0,u9v7sk4hb1,u9v7sk4hb1,conventional,,,1.0,,request,window,2.0,conventional,,,Non-Request,Yes,Prefer not to say,No,7,123213,No
165,,,audio-button-response,165,490551,0.0-11.0-8.0-0.0,u9v7sk4hb1,u9v7sk4hb1,conventional,,../data/raw/scaled_stimuli/2_request_temp.wav,,,request,temp,2.0,conventional,,,,No,Prefer not to say,No,7,123213,No
166,,436.35500001255417,html-button-response,166,491242,0.0-11.0-8.0-1.0,u9v7sk4hb1,u9v7sk4hb1,conventional,,,1.0,,request,temp,2.0,conventional,,,Non-Request,No,Prefer not to say,No,7,123213,No
167,,,audio-button-response,167,493192,0.0-11.0-9.0-0.0,u9v7sk4hb1,u9v7sk4hb1,conventional,,../data/raw/scaled_stimuli/2_request_piano.wav,,,request,piano,2.0,conventional,,,,No,Prefer not to say,No,7,123213,No
168,,372.929999983171,html-button-response,168,493821,0.0-11.0-9.0-1.0,u9v7sk4hb1,u9v7sk4hb1,conventional,,,1.0,,request,piano,2.0,conventional,,,Non-Request,Yes,Prefer not to say,No,7,123213,No
169,,,audio-button-response,169,495793,0.0-11.0-10.0-0.0,u9v7sk4hb1,u9v7sk4hb1,conventional,,../data/raw/scaled_stimuli/2_request_box.wav,,,request,box,2.0,conventional,,,,No,Prefer not to say,No,7,123213,No
170,,450.20500000100577,html-button-response,170,496499,0.0-11.0-10.0-1.0,u9v7sk4hb1,u9v7sk4hb1,conventional,,,1.0,,request,box,2.0,conventional,,,Non-Request,Yes,Prefer not to say,No,7,123213,No
171,,,audio-button-response,171,498342,0.0-11.0-11.0-0.0,u9v7sk4hb1,u9v7sk4hb1,conventional,,../data/raw/scaled_stimuli/2_question_temp.wav,,,question,temp,2.0,conventional,,,,No,Prefer not to say,No,7,123213,No
172,,441.98999999207433,html-button-response,172,499039,0.0-11.0-11.0-1.0,u9v7sk4hb1,u9v7sk4hb1,conventional,,,1.0,,question,temp,2.0,conventional,,,Non-Request,Yes,Prefer not to say,No,7,123213,No
173,,,audio-button-response,173,500803,0.0-12.0-0.0-0.0,u9v7sk4hb1,u9v7sk4hb1,conventional,,../data/raw/scaled_stimuli/19_request_window.wav,,,request,window,19.0,conventional,,,,No,Prefer not to say,No,7,123213,No
174,,430.9899999934714,html-button-response,174,501490,0.0-12.0-0.0-1.0,u9v7sk4hb1,u9v7sk4hb1,conventional,,,1.0,,request,window,19.0,conventional,,,Non-Request,No,Prefer not to say,No,7,123213,No
175,,,audio-button-response,175,503392,0.0-12.0-1.0-0.0,u9v7sk4hb1,u9v7sk4hb1,conventional,,../data/raw/scaled_stimuli/19_request_temp.wav,,,request,temp,19.0,conventional,,,,No,Prefer not to say,No,7,123213,No
176,,430.2999999781605,html-button-response,176,504078,0.0-12.0-1.0-1.0,u9v7sk4hb1,u9v7sk4hb1,conventional,,,1.0,,request,temp,19.0,conventional,,,Non-Request,No,Prefer not to say,No,7,123213,No
177,,,audio-button-response,177,505912,0.0-12.0-2.0-0.0,u9v7sk4hb1,u9v7sk4hb1,conventional,,../data/raw/scaled_stimuli/19_request_piano.wav,,,request,piano,19.0,conventional,,,,No,Prefer not to say,No,7,123213,No
178,,476.06499999528745,html-button-response,178,506643,0.0-12.0-2.0-1.0,u9v7sk4hb1,u9v7sk4hb1,conventional,,,1.0,,request,piano,19.0,conventional,,,Non-Request,No,Prefer not to say,No,7,123213,No
179,,,audio-button-response,179,508919,0.0-12.0-3.0-0.0,u9v7sk4hb1,u9v7sk4hb1,conventional,,../data/raw/scaled_stimuli/19_question_window.wav,,,question,window,19.0,conventional,,,,No,Prefer not to say,No,7,123213,No
180,,555.835000006482,html-button-response,180,509731,0.0-12.0-3.0-1.0,u9v7sk4hb1,u9v7sk4hb1,conventional,,,1.0,,question,window,19.0,conventional,,,Non-Request,Yes,Prefer not to say,No,7,123213,No
181,,,audio-button-response,181,511270,0.0-12.0-4.0-0.0,u9v7sk4hb1,u9v7sk4hb1,conventional,,../data/raw/scaled_stimuli/19_request_door.wav,,,request,door,19.0,conventional,,,,No,Prefer not to say,No,7,123213,No
182,,419.60999998264015,html-button-response,182,511945,0.0-12.0-4.0-1.0,u9v7sk4hb1,u9v7sk4hb1,conventional,,,1.0,,request,door,19.0,conventional,,,Non-Request,No,Prefer not to say,No,7,123213,No
183,,,audio-button-response,183,513487,0.0-12.0-5.0-0.0,u9v7sk4hb1,u9v7sk4hb1,conventional,,../data/raw/scaled_stimuli/19_request_box.wav,,,request,box,19.0,conventional,,,,No,Prefer not to say,No,7,123213,No
184,,376.445000001695,html-button-response,184,514120,0.0-12.0-5.0-1.0,u9v7sk4hb1,u9v7sk4hb1,conventional,,,1.0,,request,box,19.0,conventional,,,Non-Request,No,Prefer not to say,No,7,123213,No
185,,,audio-button-response,185,515920,0.0-12.0-6.0-0.0,u9v7sk4hb1,u9v7sk4hb1,conventional,,../data/raw/scaled_stimuli/19_request_Spanish.wav,,,request,Spanish,19.0,conventional,,,,No,Prefer not to say,No,7,123213,No
186,,444.2700000072364,html-button-response,186,516620,0.0-12.0-6.0-1.0,u9v7sk4hb1,u9v7sk4hb1,conventional,,,1.0,,request,Spanish,19.0,conventional,,,Non-Request,No,Prefer not to say,No,7,123213,No
187,,,audio-button-response,187,518799,0.0-12.0-7.0-0.0,u9v7sk4hb1,u9v7sk4hb1,conventional,,../data/raw/scaled_stimuli/19_question_temp.wav,,,question,temp,19.0,conventional,,,,No,Prefer not to say,No,7,123213,No
188,,460.8200000075158,html-button-response,188,519516,0.0-12.0-7.0-1.0,u9v7sk4hb1,u9v7sk4hb1,conventional,,,1.0,,question,temp,19.0,conventional,,,Non-Request,Yes,Prefer not to say,No,7,123213,No
189,,,audio-button-response,189,521539,0.0-12.0-8.0-0.0,u9v7sk4hb1,u9v7sk4hb1,conventional,,../data/raw/scaled_stimuli/19_question_piano.wav,,,question,piano,19.0,conventional,,,,No,Prefer not to say,No,7,123213,No
190,,428.0950000102166,html-button-response,190,522223,0.0-12.0-8.0-1.0,u9v7sk4hb1,u9v7sk4hb1,conventional,,,1.0,,question,piano,19.0,conventional,,,Non-Request,Yes,Prefer not to say,No,7,123213,No
191,,,audio-button-response,191,524268,0.0-12.0-9.0-0.0,u9v7sk4hb1,u9v7sk4hb1,conventional,,../data/raw/scaled_stimuli/19_question_Spanish.wav,,,question,Spanish,19.0,conventional,,,,No,Prefer not to say,No,7,123213,No
192,,399.0150000026915,html-button-response,192,524923,0.0-12.0-9.0-1.0,u9v7sk4hb1,u9v7sk4hb1,conventional,,,1.0,,question,Spanish,19.0,conventional,,,Non-Request,Yes,Prefer not to say,No,7,123213,No
193,,,audio-button-response,193,527118,0.0-12.0-10.0-0.0,u9v7sk4hb1,u9v7sk4hb1,conventional,,../data/raw/scaled_stimuli/19_question_door.wav,,,question,door,19.0,conventional,,,,No,Prefer not to say,No,7,123213,No
194,,393.37500001420267,html-button-response,194,527767,0.0-12.0-10.0-1.0,u9v7sk4hb1,u9v7sk4hb1,conventional,,,1.0,,question,door,19.0,conventional,,,Non-Request,Yes,Prefer not to say,No,7,123213,No
195,,,audio-button-response,195,530293,0.0-12.0-11.0-0.0,u9v7sk4hb1,u9v7sk4hb1,conventional,,../data/raw/scaled_stimuli/19_question_box.wav,,,question,box,19.0,conventional,,,,No,Prefer not to say,No,7,123213,No
196,,430.8550000132527,html-button-response,196,530980,0.0-12.0-11.0-1.0,u9v7sk4hb1,u9v7sk4hb1,conventional,,,1.0,,question,box,19.0,conventional,,,Non-Request,Yes,Prefer not to say,No,7,123213,No
197,,,audio-button-response,197,533057,0.0-13.0-0.0-0.0,u9v7sk4hb1,u9v7sk4hb1,conventional,,../data/raw/scaled_stimuli/21_request_temp.wav,,,request,temp,21.0,conventional,,,,No,Prefer not to say,No,7,123213,No
198,,415.32000000006514,html-button-response,198,533728,0.0-13.0-0.0-1.0,u9v7sk4hb1,u9v7sk4hb1,conventional,,,1.0,,request,temp,21.0,conventional,,,Non-Request,No,Prefer not to say,No,7,123213,No
199,,,audio-button-response,199,535199,0.0-13.0-1.0-0.0,u9v7sk4hb1,u9v7sk4hb1,conventional,,../data/raw/scaled_stimuli/21_question_piano.wav,,,question,piano,21.0,conventional,,,,No,Prefer not to say,No,7,123213,No
200,,804.6200000098906,html-button-response,200,536259,0.0-13.0-1.0-1.0,u9v7sk4hb1,u9v7sk4hb1,conventional,,,1.0,,question,piano,21.0,conventional,,,Non-Request,No,Prefer not to say,No,7,123213,No
201,,,audio-button-response,201,538066,0.0-13.0-2.0-0.0,u9v7sk4hb1,u9v7sk4hb1,conventional,,../data/raw/scaled_stimuli/21_request_piano.wav,,,request,piano,21.0,conventional,,,,No,Prefer not to say,No,7,123213,No
202,,595.9350000193807,html-button-response,202,538918,0.0-13.0-2.0-1.0,u9v7sk4hb1,u9v7sk4hb1,conventional,,,1.0,,request,piano,21.0,conventional,,,Non-Request,Yes,Prefer not to say,No,7,123213,No
203,,,audio-button-response,203,540574,0.0-13.0-3.0-0.0,u9v7sk4hb1,u9v7sk4hb1,conventional,,../data/raw/scaled_stimuli/21_request_box.wav,,,request,box,21.0,conventional,,,,No,Prefer not to say,No,7,123213,No
204,,492.8099999960977,html-button-response,204,541323,0.0-13.0-3.0-1.0,u9v7sk4hb1,u9v7sk4hb1,conventional,,,1.0,,request,box,21.0,conventional,,,Non-Request,No,Prefer not to say,No,7,123213,No
205,,,audio-button-response,205,543146,0.0-13.0-4.0-0.0,u9v7sk4hb1,u9v7sk4hb1,conventional,,../data/raw/scaled_stimuli/21_request_door.wav,,,request,door,21.0,conventional,,,,No,Prefer not to say,No,7,123213,No
206,,532.664999976987,html-button-response,206,543934,0.0-13.0-4.0-1.0,u9v7sk4hb1,u9v7sk4hb1,conventional,,,1.0,,request,door,21.0,conventional,,,Non-Request,No,Prefer not to say,No,7,123213,No
207,,,audio-button-response,207,545660,0.0-13.0-5.0-0.0,u9v7sk4hb1,u9v7sk4hb1,conventional,,../data/raw/scaled_stimuli/21_request_Spanish.wav,,,request,Spanish,21.0,conventional,,,,No,Prefer not to say,No,7,123213,No
208,,502.8549999988172,html-button-response,208,546418,0.0-13.0-5.0-1.0,u9v7sk4hb1,u9v7sk4hb1,conventional,,,1.0,,request,Spanish,21.0,conventional,,,Non-Request,No,Prefer not to say,No,7,123213,No
209,,,audio-button-response,209,548051,0.0-13.0-6.0-0.0,u9v7sk4hb1,u9v7sk4hb1,conventional,,../data/raw/scaled_stimuli/21_question_Spanish.wav,,,question,Spanish,21.0,conventional,,,,No,Prefer not to say,No,7,123213,No
210,,525.0450000166893,html-button-response,210,548832,0.0-13.0-6.0-1.0,u9v7sk4hb1,u9v7sk4hb1,conventional,,,1.0,,question,Spanish,21.0,conventional,,,Non-Request,Yes,Prefer not to say,No,7,123213,No
211,,,audio-button-response,211,550536,0.0-13.0-7.0-0.0,u9v7sk4hb1,u9v7sk4hb1,conventional,,../data/raw/scaled_stimuli/21_question_temp.wav,,,question,temp,21.0,conventional,,,,No,Prefer not to say,No,7,123213,No
212,,627.4499999999534,html-button-response,212,551419,0.0-13.0-7.0-1.0,u9v7sk4hb1,u9v7sk4hb1,conventional,,,1.0,,question,temp,21.0,conventional,,,Non-Request,Yes,Prefer not to say,No,7,123213,No
213,,,audio-button-response,213,552870,0.0-13.0-8.0-0.0,u9v7sk4hb1,u9v7sk4hb1,conventional,,../data/raw/scaled_stimuli/21_question_door.wav,,,question,door,21.0,conventional,,,,No,Prefer not to say,No,7,123213,No
214,,628.6300000210757,html-button-response,214,553754,0.0-13.0-8.0-1.0,u9v7sk4hb1,u9v7sk4hb1,conventional,,,1.0,,question,door,21.0,conventional,,,Non-Request,Yes,Prefer not to say,No,7,123213,No
215,,,audio-button-response,215,555563,0.0-13.0-9.0-0.0,u9v7sk4hb1,u9v7sk4hb1,conventional,,../data/raw/scaled_stimuli/21_request_window.wav,,,request,window,21.0,conventional,,,,No,Prefer not to say,No,7,123213,No
216,,652.2249999979978,html-button-response,216,556468,0.0-13.0-9.0-1.0,u9v7sk4hb1,u9v7sk4hb1,conventional,,,1.0,,request,window,21.0,conventional,,,Non-Request,No,Prefer not to say,No,7,123213,No
217,,,audio-button-response,217,558054,0.0-13.0-10.0-0.0,u9v7sk4hb1,u9v7sk4hb1,conventional,,../data/raw/scaled_stimuli/21_question_window.wav,,,question,window,21.0,conventional,,,,No,Prefer not to say,No,7,123213,No
218,,626.7200000002049,html-button-response,218,558936,0.0-13.0-10.0-1.0,u9v7sk4hb1,u9v7sk4hb1,conventional,,,1.0,,question,window,21.0,conventional,,,Non-Request,Yes,Prefer not to say,No,7,123213,No
219,,,audio-button-response,219,560573,0.0-13.0-11.0-0.0,u9v7sk4hb1,u9v7sk4hb1,conventional,,../data/raw/scaled_stimuli/21_question_box.wav,,,question,box,21.0,conventional,,,,No,Prefer not to say,No,7,123213,No
220,,572.939999983646,html-button-response,220,561402,0.0-13.0-11.0-1.0,u9v7sk4hb1,u9v7sk4hb1,conventional,,,1.0,,question,box,21.0,conventional,,,Non-Request,Yes,Prefer not to say,No,7,123213,No
221,,,audio-button-response,221,563104,0.0-14.0-0.0-0.0,u9v7sk4hb1,u9v7sk4hb1,conventional,,../data/raw/scaled_stimuli/8_question_door.wav,,,question,door,8.0,conventional,,,,No,Prefer not to say,No,7,123213,No
222,,366.9949999894016,html-button-response,222,563727,0.0-14.0-0.0-1.0,u9v7sk4hb1,u9v7sk4hb1,conventional,,,1.0,,question,door,8.0,conventional,,,Non-Request,No,Prefer not to say,No,7,123213,No
223,,,audio-button-response,223,565560,0.0-14.0-1.0-0.0,u9v7sk4hb1,u9v7sk4hb1,conventional,,../data/raw/scaled_stimuli/8_question_temp.wav,,,question,temp,8.0,conventional,,,,No,Prefer not to say,No,7,123213,No
224,,411.28999998909416,html-button-response,224,566227,0.0-14.0-1.0-1.0,u9v7sk4hb1,u9v7sk4hb1,conventional,,,1.0,,question,temp,8.0,conventional,,,Non-Request,No,Prefer not to say,No,7,123213,No
225,,,audio-button-response,225,568189,0.0-14.0-2.0-0.0,u9v7sk4hb1,u9v7sk4hb1,conventional,,../data/raw/scaled_stimuli/8_request_Spanish.wav,,,request,Spanish,8.0,conventional,,,,No,Prefer not to say,No,7,123213,No
226,,490.91999998199753,html-button-response,226,568934,0.0-14.0-2.0-1.0,u9v7sk4hb1,u9v7sk4hb1,conventional,,,1.0,,request,Spanish,8.0,conventional,,,Non-Request,No,Prefer not to say,No,7,123213,No
227,,,audio-button-response,227,570732,0.0-14.0-3.0-0.0,u9v7sk4hb1,u9v7sk4hb1,conventional,,../data/raw/scaled_stimuli/8_question_window.wav,,,question,window,8.0,conventional,,,,No,Prefer not to say,No,7,123213,No
228,,463.4049999876879,html-button-response,228,571451,0.0-14.0-3.0-1.0,u9v7sk4hb1,u9v7sk4hb1,conventional,,,1.0,,question,window,8.0,conventional,,,Non-Request,No,Prefer not to say,No,7,123213,No
229,,,audio-button-response,229,573408,0.0-14.0-4.0-0.0,u9v7sk4hb1,u9v7sk4hb1,conventional,,../data/raw/scaled_stimuli/8_question_Spanish.wav,,,question,Spanish,8.0,conventional,,,,No,Prefer not to say,No,7,123213,No
230,,298.44499999308033,html-button-response,230,573959,0.0-14.0-4.0-1.0,u9v7sk4hb1,u9v7sk4hb1,conventional,,,1.0,,question,Spanish,8.0,conventional,,,Non-Request,Yes,Prefer not to say,No,7,123213,No
231,,,audio-button-response,231,575713,0.0-14.0-5.0-0.0,u9v7sk4hb1,u9v7sk4hb1,conventional,,../data/raw/scaled_stimuli/8_request_piano.wav,,,request,piano,8.0,conventional,,,,No,Prefer not to say,No,7,123213,No
232,,417.1999999962282,html-button-response,232,576382,0.0-14.0-5.0-1.0,u9v7sk4hb1,u9v7sk4hb1,conventional,,,1.0,,request,piano,8.0,conventional,,,Non-Request,No,Prefer not to say,No,7,123213,No
233,,,audio-button-response,233,578134,0.0-14.0-6.0-0.0,u9v7sk4hb1,u9v7sk4hb1,conventional,,../data/raw/scaled_stimuli/8_question_piano.wav,,,question,piano,8.0,conventional,,,,No,Prefer not to say,No,7,123213,No
234,,390.030000009574,html-button-response,234,578775,0.0-14.0-6.0-1.0,u9v7sk4hb1,u9v7sk4hb1,conventional,,,1.0,,question,piano,8.0,conventional,,,Non-Request,Yes,Prefer not to say,No,7,123213,No
235,,,audio-button-response,235,580456,0.0-14.0-7.0-0.0,u9v7sk4hb1,u9v7sk4hb1,conventional,,../data/raw/scaled_stimuli/8_request_door.wav,,,request,door,8.0,conventional,,,,No,Prefer not to say,No,7,123213,No
236,,477.27999999187887,html-button-response,236,581189,0.0-14.0-7.0-1.0,u9v7sk4hb1,u9v7sk4hb1,conventional,,,1.0,,request,door,8.0,conventional,,,Non-Request,Yes,Prefer not to say,No,7,123213,No
237,,,audio-button-response,237,582935,0.0-14.0-8.0-0.0,u9v7sk4hb1,u9v7sk4hb1,conventional,,../data/raw/scaled_stimuli/8_question_box.wav,,,question,box,8.0,conventional,,,,No,Prefer not to say,No,7,123213,No
238,,134.17499998467974,html-button-response,238,583325,0.0-14.0-8.0-1.0,u9v7sk4hb1,u9v7sk4hb1,conventional,,,1.0,,question,box,8.0,conventional,,,Non-Request,No,Prefer not to say,No,7,123213,No
239,,,audio-button-response,239,584995,0.0-14.0-9.0-0.0,u9v7sk4hb1,u9v7sk4hb1,conventional,,../data/raw/scaled_stimuli/8_request_box.wav,,,request,box,8.0,conventional,,,,No,Prefer not to say,No,7,123213,No
240,,405.05500001017936,html-button-response,240,585656,0.0-14.0-9.0-1.0,u9v7sk4hb1,u9v7sk4hb1,conventional,,,1.0,,request,box,8.0,conventional,,,Non-Request,Yes,Prefer not to say,No,7,123213,No
241,,,audio-button-response,241,587509,0.0-14.0-10.0-0.0,u9v7sk4hb1,u9v7sk4hb1,conventional,,../data/raw/scaled_stimuli/8_request_temp.wav,,,request,temp,8.0,conventional,,,,No,Prefer not to say,No,7,123213,No
242,,391.47000000230037,html-button-response,242,588156,0.0-14.0-10.0-1.0,u9v7sk4hb1,u9v7sk4hb1,conventional,,,1.0,,request,temp,8.0,conventional,,,Non-Request,Yes,Prefer not to say,No,7,123213,No
243,,,audio-button-response,243,589872,0.0-14.0-11.0-0.0,u9v7sk4hb1,u9v7sk4hb1,conventional,,../data/raw/scaled_stimuli/8_request_window.wav,,,request,window,8.0,conventional,,,,No,Prefer not to say,No,7,123213,No
244,,562.0399999897927,html-button-response,244,590690,0.0-14.0-11.0-1.0,u9v7sk4hb1,u9v7sk4hb1,conventional,,,1.0,,request,window,8.0,conventional,,,Non-Request,Yes,Prefer not to say,No,7,123213,No
245,,,audio-button-response,245,592873,0.0-15.0-0.0-0.0,u9v7sk4hb1,u9v7sk4hb1,conventional,,../data/raw/scaled_stimuli/17_question_temp.wav,,,question,temp,17.0,conventional,,,,No,Prefer not to say,No,7,123213,No
246,,412.6850000175182,html-button-response,246,593540,0.0-15.0-0.0-1.0,u9v7sk4hb1,u9v7sk4hb1,conventional,,,1.0,,question,temp,17.0,conventional,,,Non-Request,No,Prefer not to say,No,7,123213,No
247,,,audio-button-response,247,595369,0.0-15.0-1.0-0.0,u9v7sk4hb1,u9v7sk4hb1,conventional,,../data/raw/scaled_stimuli/17_question_window.wav,,,question,window,17.0,conventional,,,,No,Prefer not to say,No,7,123213,No
248,,561.4650000061374,html-button-response,248,596182,0.0-15.0-1.0-1.0,u9v7sk4hb1,u9v7sk4hb1,conventional,,,1.0,,question,window,17.0,conventional,,,Non-Request,No,Prefer not to say,No,7,123213,No
249,,,audio-button-response,249,598028,0.0-15.0-2.0-0.0,u9v7sk4hb1,u9v7sk4hb1,conventional,,../data/raw/scaled_stimuli/17_question_box.wav,,,question,box,17.0,conventional,,,,No,Prefer not to say,No,7,123213,No
250,,429.96999999741087,html-button-response,250,598714,0.0-15.0-2.0-1.0,u9v7sk4hb1,u9v7sk4hb1,conventional,,,1.0,,question,box,17.0,conventional,,,Non-Request,No,Prefer not to say,No,7,123213,No
251,,,audio-button-response,251,600396,0.0-15.0-3.0-0.0,u9v7sk4hb1,u9v7sk4hb1,conventional,,../data/raw/scaled_stimuli/17_question_piano.wav,,,question,piano,17.0,conventional,,,,No,Prefer not to say,No,7,123213,No
252,,426.8599999777507,html-button-response,252,601079,0.0-15.0-3.0-1.0,u9v7sk4hb1,u9v7sk4hb1,conventional,,,1.0,,question,piano,17.0,conventional,,,Non-Request,No,Prefer not to say,No,7,123213,No
253,,,audio-button-response,253,602794,0.0-15.0-4.0-0.0,u9v7sk4hb1,u9v7sk4hb1,conventional,,../data/raw/scaled_stimuli/17_question_door.wav,,,question,door,17.0,conventional,,,,No,Prefer not to say,No,7,123213,No
254,,502.33499999740167,html-button-response,254,603548,0.0-15.0-4.0-1.0,u9v7sk4hb1,u9v7sk4hb1,conventional,,,1.0,,question,door,17.0,conventional,,,Non-Request,No,Prefer not to say,No,7,123213,No
255,,,audio-button-response,255,605691,0.0-15.0-5.0-0.0,u9v7sk4hb1,u9v7sk4hb1,conventional,,../data/raw/scaled_stimuli/17_question_Spanish.wav,,,question,Spanish,17.0,conventional,,,,No,Prefer not to say,No,7,123213,No
256,,1013.7600000016392,html-button-response,256,606960,0.0-15.0-5.0-1.0,u9v7sk4hb1,u9v7sk4hb1,conventional,,,1.0,,question,Spanish,17.0,conventional,,,Non-Request,No,Prefer not to say,No,7,123213,No
257,,,audio-button-response,257,609046,0.0-15.0-6.0-0.0,u9v7sk4hb1,u9v7sk4hb1,conventional,,../data/raw/scaled_stimuli/17_request_window.wav,,,request,window,17.0,conventional,,,,No,Prefer not to say,No,7,123213,No
258,,654.5749999932012,html-button-response,258,609957,0.0-15.0-6.0-1.0,u9v7sk4hb1,u9v7sk4hb1,conventional,,,1.0,,request,window,17.0,conventional,,,Non-Request,Yes,Prefer not to say,No,7,123213,No
259,,,audio-button-response,259,611734,0.0-15.0-7.0-0.0,u9v7sk4hb1,u9v7sk4hb1,conventional,,../data/raw/scaled_stimuli/17_request_temp.wav,,,request,temp,17.0,conventional,,,,No,Prefer not to say,No,7,123213,No
260,,401.62499999860296,html-button-response,260,612391,0.0-15.0-7.0-1.0,u9v7sk4hb1,u9v7sk4hb1,conventional,,,1.0,,request,temp,17.0,conventional,,,Non-Request,Yes,Prefer not to say,No,7,123213,No
261,,,audio-button-response,261,614491,0.0-15.0-8.0-0.0,u9v7sk4hb1,u9v7sk4hb1,conventional,,../data/raw/scaled_stimuli/17_request_box.wav,,,request,box,17.0,conventional,,,,No,Prefer not to say,No,7,123213,No
262,,652.6000000012573,html-button-response,262,615398,0.0-15.0-8.0-1.0,u9v7sk4hb1,u9v7sk4hb1,conventional,,,1.0,,request,box,17.0,conventional,,,Non-Request,Yes,Prefer not to say,No,7,123213,No
263,,,audio-button-response,263,617174,0.0-15.0-9.0-0.0,u9v7sk4hb1,u9v7sk4hb1,conventional,,../data/raw/scaled_stimuli/17_request_piano.wav,,,request,piano,17.0,conventional,,,,No,Prefer not to say,No,7,123213,No
264,,1028.1050000048708,html-button-response,264,618457,0.0-15.0-9.0-1.0,u9v7sk4hb1,u9v7sk4hb1,conventional,,,1.0,,request,piano,17.0,conventional,,,Non-Request,Yes,Prefer not to say,No,7,123213,No
265,,,audio-button-response,265,620116,0.0-15.0-10.0-0.0,u9v7sk4hb1,u9v7sk4hb1,conventional,,../data/raw/scaled_stimuli/17_request_door.wav,,,request,door,17.0,conventional,,,,No,Prefer not to say,No,7,123213,No
266,,743.0849999946076,html-button-response,266,621115,0.0-15.0-10.0-1.0,u9v7sk4hb1,u9v7sk4hb1,conventional,,,1.0,,request,door,17.0,conventional,,,Non-Request,Yes,Prefer not to say,No,7,123213,No
267,,,audio-button-response,267,623124,0.0-15.0-11.0-0.0,u9v7sk4hb1,u9v7sk4hb1,conventional,,../data/raw/scaled_stimuli/17_request_Spanish.wav,,,request,Spanish,17.0,conventional,,,,No,Prefer not to say,No,7,123213,No
268,,418.82500000065187,html-button-response,268,623796,0.0-15.0-11.0-1.0,u9v7sk4hb1,u9v7sk4hb1,conventional,,,1.0,,request,Spanish,17.0,conventional,,,Non-Request,Yes,Prefer not to say,No,7,123213,No
269,,,audio-button-response,269,625660,0.0-16.0-0.0-0.0,u9v7sk4hb1,u9v7sk4hb1,conventional,,../data/raw/scaled_stimuli/20_request_piano.wav,,,request,piano,20.0,conventional,,,,No,Prefer not to say,No,7,123213,No
270,,426.83500002021896,html-button-response,270,626343,0.0-16.0-0.0-1.0,u9v7sk4hb1,u9v7sk4hb1,conventional,,,1.0,,request,piano,20.0,conventional,,,Non-Request,No,Prefer not to say,No,7,123213,No
271,,,audio-button-response,271,628581,0.0-16.0-1.0-0.0,u9v7sk4hb1,u9v7sk4hb1,conventional,,../data/raw/scaled_stimuli/20_request_Spanish.wav,,,request,Spanish,20.0,conventional,,,,No,Prefer not to say,No,7,123213,No
272,,356.97999998228624,html-button-response,272,629193,0.0-16.0-1.0-1.0,u9v7sk4hb1,u9v7sk4hb1,conventional,,,1.0,,request,Spanish,20.0,conventional,,,Non-Request,No,Prefer not to say,No,7,123213,No
273,,,audio-button-response,273,631222,0.0-16.0-2.0-0.0,u9v7sk4hb1,u9v7sk4hb1,conventional,,../data/raw/scaled_stimuli/20_question_window.wav,,,question,window,20.0,conventional,,,,No,Prefer not to say,No,7,123213,No
274,,42368.955000012655,html-button-response,274,673849,0.0-16.0-2.0-1.0,u9v7sk4hb1,u9v7sk4hb1,conventional,,,1.0,,question,window,20.0,conventional,,,Non-Request,No,Prefer not to say,No,7,123213,No
275,,,audio-button-response,275,676003,0.0-16.0-3.0-0.0,u9v7sk4hb1,u9v7sk4hb1,conventional,,../data/raw/scaled_stimuli/20_question_door.wav,,,question,door,20.0,conventional,,,,No,Prefer not to say,No,7,123213,No
276,,394.63500000420026,html-button-response,276,676653,0.0-16.0-3.0-1.0,u9v7sk4hb1,u9v7sk4hb1,conventional,,,1.0,,question,door,20.0,conventional,,,Non-Request,No,Prefer not to say,No,7,123213,No
277,,,audio-button-response,277,678684,0.0-16.0-4.0-0.0,u9v7sk4hb1,u9v7sk4hb1,conventional,,../data/raw/scaled_stimuli/20_question_piano.wav,,,question,piano,20.0,conventional,,,,No,Prefer not to say,No,7,123213,No
278,,130509.02999998652,html-button-response,278,809454,0.0-16.0-4.0-1.0,u9v7sk4hb1,u9v7sk4hb1,conventional,,,1.0,,question,piano,20.0,conventional,,,Non-Request,Yes,Prefer not to say,No,7,123213,No
279,,,audio-button-response,279,811640,0.0-16.0-5.0-0.0,u9v7sk4hb1,u9v7sk4hb1,conventional,,../data/raw/scaled_stimuli/20_request_temp.wav,,,request,temp,20.0,conventional,,,,No,Prefer not to say,No,7,123213,No
280,,540.1499999861699,html-button-response,280,812437,0.0-16.0-5.0-1.0,u9v7sk4hb1,u9v7sk4hb1,conventional,,,1.0,,request,temp,20.0,conventional,,,Non-Request,No,Prefer not to say,No,7,123213,No
281,,,audio-button-response,281,814885,0.0-16.0-6.0-0.0,u9v7sk4hb1,u9v7sk4hb1,conventional,,../data/raw/scaled_stimuli/20_question_box.wav,,,question,box,20.0,conventional,,,,No,Prefer not to say,No,7,123213,No
282,,3805.465000012191,html-button-response,282,818944,0.0-16.0-6.0-1.0,u9v7sk4hb1,u9v7sk4hb1,conventional,,,1.0,,question,box,20.0,conventional,,,Non-Request,No,Prefer not to say,No,7,123213,No
283,,,audio-button-response,283,820905,0.0-16.0-7.0-0.0,u9v7sk4hb1,u9v7sk4hb1,conventional,,../data/raw/scaled_stimuli/20_request_box.wav,,,request,box,20.0,conventional,,,,No,Prefer not to say,No,7,123213,No
284,,635.3699999745004,html-button-response,284,821794,0.0-16.0-7.0-1.0,u9v7sk4hb1,u9v7sk4hb1,conventional,,,1.0,,request,box,20.0,conventional,,,Non-Request,Yes,Prefer not to say,No,7,123213,No
285,,,audio-button-response,285,823639,0.0-16.0-8.0-0.0,u9v7sk4hb1,u9v7sk4hb1,conventional,,../data/raw/scaled_stimuli/20_request_window.wav,,,request,window,20.0,conventional,,,,No,Prefer not to say,No,7,123213,No
286,,1734.2249999928754,html-button-response,286,825629,0.0-16.0-8.0-1.0,u9v7sk4hb1,u9v7sk4hb1,conventional,,,1.0,,request,window,20.0,conventional,,,Non-Request,Yes,Prefer not to say,No,7,123213,No
287,,,audio-button-response,287,827598,0.0-16.0-9.0-0.0,u9v7sk4hb1,u9v7sk4hb1,conventional,,../data/raw/scaled_stimuli/20_question_temp.wav,,,question,temp,20.0,conventional,,,,No,Prefer not to say,No,7,123213,No
288,,1602.2200000006706,html-button-response,288,829456,0.0-16.0-9.0-1.0,u9v7sk4hb1,u9v7sk4hb1,conventional,,,1.0,,question,temp,20.0,conventional,,,Non-Request,Yes,Prefer not to say,No,7,123213,No
289,,,audio-button-response,289,831674,0.0-16.0-10.0-0.0,u9v7sk4hb1,u9v7sk4hb1,conventional,,../data/raw/scaled_stimuli/20_request_door.wav,,,request,door,20.0,conventional,,,,No,Prefer not to say,No,7,123213,No
290,,1506.1050000076648,html-button-response,290,833435,0.0-16.0-10.0-1.0,u9v7sk4hb1,u9v7sk4hb1,conventional,,,1.0,,request,door,20.0,conventional,,,Non-Request,Yes,Prefer not to say,No,7,123213,No
291,,,audio-button-response,291,835673,0.0-16.0-11.0-0.0,u9v7sk4hb1,u9v7sk4hb1,conventional,,../data/raw/scaled_stimuli/20_question_Spanish.wav,,,question,Spanish,20.0,conventional,,,,No,Prefer not to say,No,7,123213,No
292,,1128.7650000012945,html-button-response,292,837056,0.0-16.0-11.0-1.0,u9v7sk4hb1,u9v7sk4hb1,conventional,,,1.0,,question,Spanish,20.0,conventional,,,Non-Request,Yes,Prefer not to say,No,7,123213,No
293,,,audio-button-response,293,838947,0.0-17.0-0.0-0.0,u9v7sk4hb1,u9v7sk4hb1,conventional,,../data/raw/scaled_stimuli/5_question_box.wav,,,question,box,5.0,conventional,,,,No,Prefer not to say,No,7,123213,No
294,,1647.560000012163,html-button-response,294,840846,0.0-17.0-0.0-1.0,u9v7sk4hb1,u9v7sk4hb1,conventional,,,1.0,,question,box,5.0,conventional,,,Non-Request,No,Prefer not to say,No,7,123213,No
295,,,audio-button-response,295,842750,0.0-17.0-1.0-0.0,u9v7sk4hb1,u9v7sk4hb1,conventional,,../data/raw/scaled_stimuli/5_request_Spanish.wav,,,request,Spanish,5.0,conventional,,,,No,Prefer not to say,No,7,123213,No
296,,797.3950000014156,html-button-response,296,843805,0.0-17.0-1.0-1.0,u9v7sk4hb1,u9v7sk4hb1,conventional,,,1.0,,request,Spanish,5.0,conventional,,,Non-Request,No,Prefer not to say,No,7,123213,No
297,,,audio-button-response,297,845356,0.0-17.0-2.0-0.0,u9v7sk4hb1,u9v7sk4hb1,conventional,,../data/raw/scaled_stimuli/5_request_piano.wav,,,request,piano,5.0,conventional,,,,No,Prefer not to say,No,7,123213,No
298,,686.9949999963865,html-button-response,298,846298,0.0-17.0-2.0-1.0,u9v7sk4hb1,u9v7sk4hb1,conventional,,,1.0,,request,piano,5.0,conventional,,,Non-Request,No,Prefer not to say,No,7,123213,No
299,,,audio-button-response,299,848170,0.0-17.0-3.0-0.0,u9v7sk4hb1,u9v7sk4hb1,conventional,,../data/raw/scaled_stimuli/5_question_window.wav,,,question,window,5.0,conventional,,,,No,Prefer not to say,No,7,123213,No
300,,1436.5549999929501,html-button-response,300,849863,0.0-17.0-3.0-1.0,u9v7sk4hb1,u9v7sk4hb1,conventional,,,1.0,,question,window,5.0,conventional,,,Non-Request,No,Prefer not to say,No,7,123213,No
301,,,audio-button-response,301,851880,0.0-17.0-4.0-0.0,u9v7sk4hb1,u9v7sk4hb1,conventional,,../data/raw/scaled_stimuli/5_question_door.wav,,,question,door,5.0,conventional,,,,No,Prefer not to say,No,7,123213,No
302,,1133.5649999964517,html-button-response,302,853269,0.0-17.0-4.0-1.0,u9v7sk4hb1,u9v7sk4hb1,conventional,,,1.0,,question,door,5.0,conventional,,,Non-Request,No,Prefer not to say,No,7,123213,No
303,,,audio-button-response,303,855102,0.0-17.0-5.0-0.0,u9v7sk4hb1,u9v7sk4hb1,conventional,,../data/raw/scaled_stimuli/5_request_door.wav,,,request,door,5.0,conventional,,,,No,Prefer not to say,No,7,123213,No
304,,827.1299999905749,html-button-response,304,856183,0.0-17.0-5.0-1.0,u9v7sk4hb1,u9v7sk4hb1,conventional,,,1.0,,request,door,5.0,conventional,,,Non-Request,Yes,Prefer not to say,No,7,123213,No
305,,,audio-button-response,305,857760,0.0-17.0-6.0-0.0,u9v7sk4hb1,u9v7sk4hb1,conventional,,../data/raw/scaled_stimuli/5_request_window.wav,,,request,window,5.0,conventional,,,,No,Prefer not to say,No,7,123213,No
306,,1581.0050000145566,html-button-response,306,859597,0.0-17.0-6.0-1.0,u9v7sk4hb1,u9v7sk4hb1,conventional,,,1.0,,request,window,5.0,conventional,,,Non-Request,Yes,Prefer not to say,No,7,123213,No
307,,,audio-button-response,307,861650,0.0-17.0-7.0-0.0,u9v7sk4hb1,u9v7sk4hb1,conventional,,../data/raw/scaled_stimuli/5_question_temp.wav,,,question,temp,5.0,conventional,,,,No,Prefer not to say,No,7,123213,No
308,,812.7050000184681,html-button-response,308,862719,0.0-17.0-7.0-1.0,u9v7sk4hb1,u9v7sk4hb1,conventional,,,1.0,,question,temp,5.0,conventional,,,Non-Request,No,Prefer not to say,No,7,123213,No
309,,,audio-button-response,309,864193,0.0-17.0-8.0-0.0,u9v7sk4hb1,u9v7sk4hb1,conventional,,../data/raw/scaled_stimuli/5_question_piano.wav,,,question,piano,5.0,conventional,,,,No,Prefer not to say,No,7,123213,No
310,,1453.6150000058115,html-button-response,310,865902,0.0-17.0-8.0-1.0,u9v7sk4hb1,u9v7sk4hb1,conventional,,,1.0,,question,piano,5.0,conventional,,,Non-Request,Yes,Prefer not to say,No,7,123213,No
311,,,audio-button-response,311,867629,0.0-17.0-9.0-0.0,u9v7sk4hb1,u9v7sk4hb1,conventional,,../data/raw/scaled_stimuli/5_request_temp.wav,,,request,temp,5.0,conventional,,,,No,Prefer not to say,No,7,123213,No
312,,1821.2300000013786,html-button-response,312,869706,0.0-17.0-9.0-1.0,u9v7sk4hb1,u9v7sk4hb1,conventional,,,1.0,,request,temp,5.0,conventional,,,Non-Request,Yes,Prefer not to say,No,7,123213,No
313,,,audio-button-response,313,871408,0.0-17.0-10.0-0.0,u9v7sk4hb1,u9v7sk4hb1,conventional,,../data/raw/scaled_stimuli/5_request_box.wav,,,request,box,5.0,conventional,,,,No,Prefer not to say,No,7,123213,No
314,,1138.9100000087635,html-button-response,314,872803,0.0-17.0-10.0-1.0,u9v7sk4hb1,u9v7sk4hb1,conventional,,,1.0,,request,box,5.0,conventional,,,Non-Request,Yes,Prefer not to say,No,7,123213,No
315,,,audio-button-response,315,875228,0.0-17.0-11.0-0.0,u9v7sk4hb1,u9v7sk4hb1,conventional,,../data/raw/scaled_stimuli/5_question_Spanish.wav,,,question,Spanish,5.0,conventional,,,,No,Prefer not to say,No,7,123213,No
316,,1726.3500000117347,html-button-response,316,877210,0.0-17.0-11.0-1.0,u9v7sk4hb1,u9v7sk4hb1,conventional,,,1.0,,question,Spanish,5.0,conventional,,,Non-Request,Yes,Prefer not to say,No,7,123213,No
317,,,audio-button-response,317,879031,0.0-18.0-0.0-0.0,u9v7sk4hb1,u9v7sk4hb1,conventional,,../data/raw/scaled_stimuli/22_request_door.wav,,,request,door,22.0,conventional,,,,No,Prefer not to say,No,7,123213,No
318,,5481.270000018412,html-button-response,318,884768,0.0-18.0-0.0-1.0,u9v7sk4hb1,u9v7sk4hb1,conventional,,,1.0,,request,door,22.0,conventional,,,Non-Request,No,Prefer not to say,No,7,123213,No
319,,,audio-button-response,319,887239,0.0-18.0-1.0-0.0,u9v7sk4hb1,u9v7sk4hb1,conventional,,../data/raw/scaled_stimuli/22_request_Spanish.wav,,,request,Spanish,22.0,conventional,,,,No,Prefer not to say,No,7,123213,No
320,,2398.359999991953,html-button-response,320,889894,0.0-18.0-1.0-1.0,u9v7sk4hb1,u9v7sk4hb1,conventional,,,1.0,,request,Spanish,22.0,conventional,,,Non-Request,No,Prefer not to say,No,7,123213,No
321,,,audio-button-response,321,891924,0.0-18.0-2.0-0.0,u9v7sk4hb1,u9v7sk4hb1,conventional,,../data/raw/scaled_stimuli/22_request_temp.wav,,,request,temp,22.0,conventional,,,,No,Prefer not to say,No,7,123213,No
322,,809.8750000062863,html-button-response,322,892990,0.0-18.0-2.0-1.0,u9v7sk4hb1,u9v7sk4hb1,conventional,,,1.0,,request,temp,22.0,conventional,,,Non-Request,No,Prefer not to say,No,7,123213,No
323,,,audio-button-response,323,894937,0.0-18.0-3.0-0.0,u9v7sk4hb1,u9v7sk4hb1,conventional,,../data/raw/scaled_stimuli/22_request_box.wav,,,request,box,22.0,conventional,,,,No,Prefer not to say,No,7,123213,No
324,,1790.8300000126474,html-button-response,324,896983,0.0-18.0-3.0-1.0,u9v7sk4hb1,u9v7sk4hb1,conventional,,,1.0,,request,box,22.0,conventional,,,Non-Request,No,Prefer not to say,No,7,123213,No
325,,,audio-button-response,325,900185,0.0-18.0-4.0-0.0,u9v7sk4hb1,u9v7sk4hb1,conventional,,../data/raw/scaled_stimuli/22_question_piano.wav,,,question,piano,22.0,conventional,,,,No,Prefer not to say,No,7,123213,No
326,,2794.3500000110357,html-button-response,326,903233,0.0-18.0-4.0-1.0,u9v7sk4hb1,u9v7sk4hb1,conventional,,,1.0,,question,piano,22.0,conventional,,,Non-Request,No,Prefer not to say,No,7,123213,No
327,,,audio-button-response,327,905833,0.0-18.0-5.0-0.0,u9v7sk4hb1,u9v7sk4hb1,conventional,,../data/raw/scaled_stimuli/22_request_piano.wav,,,request,piano,22.0,conventional,,,,No,Prefer not to say,No,7,123213,No
328,,3972.9400000069286,html-button-response,328,910062,0.0-18.0-5.0-1.0,u9v7sk4hb1,u9v7sk4hb1,conventional,,,1.0,,request,piano,22.0,conventional,,,Non-Request,Yes,Prefer not to say,No,7,123213,No
329,,,audio-button-response,329,911882,0.0-18.0-6.0-0.0,u9v7sk4hb1,u9v7sk4hb1,conventional,,../data/raw/scaled_stimuli/22_question_temp.wav,,,question,temp,22.0,conventional,,,,No,Prefer not to say,No,7,123213,No
330,,2348.105000011856,html-button-response,330,914486,0.0-18.0-6.0-1.0,u9v7sk4hb1,u9v7sk4hb1,conventional,,,1.0,,question,temp,22.0,conventional,,,Non-Request,Yes,Prefer not to say,No,7,123213,No
331,,,audio-button-response,331,917176,0.0-18.0-7.0-0.0,u9v7sk4hb1,u9v7sk4hb1,conventional,,../data/raw/scaled_stimuli/22_question_window.wav,,,question,window,22.0,conventional,,,,No,Prefer not to say,No,7,123213,No
332,,1167.924999987008,html-button-response,332,918600,0.0-18.0-7.0-1.0,u9v7sk4hb1,u9v7sk4hb1,conventional,,,1.0,,question,window,22.0,conventional,,,Non-Request,No,Prefer not to say,No,7,123213,No
333,,,audio-button-response,333,921211,0.0-18.0-8.0-0.0,u9v7sk4hb1,u9v7sk4hb1,conventional,,../data/raw/scaled_stimuli/22_question_box.wav,,,question,box,22.0,conventional,,,,No,Prefer not to say,No,7,123213,No
334,,1008.9750000042841,html-button-response,334,922476,0.0-18.0-8.0-1.0,u9v7sk4hb1,u9v7sk4hb1,conventional,,,1.0,,question,box,22.0,conventional,,,Non-Request,Yes,Prefer not to say,No,7,123213,No
335,,,audio-button-response,335,924613,0.0-18.0-9.0-0.0,u9v7sk4hb1,u9v7sk4hb1,conventional,,../data/raw/scaled_stimuli/22_request_window.wav,,,request,window,22.0,conventional,,,,No,Prefer not to say,No,7,123213,No
336,,2086.8199999968056,html-button-response,336,926955,0.0-18.0-9.0-1.0,u9v7sk4hb1,u9v7sk4hb1,conventional,,,1.0,,request,window,22.0,conventional,,,Non-Request,Yes,Prefer not to say,No,7,123213,No
337,,,audio-button-response,337,929483,0.0-18.0-10.0-0.0,u9v7sk4hb1,u9v7sk4hb1,conventional,,../data/raw/scaled_stimuli/22_question_door.wav,,,question,door,22.0,conventional,,,,No,Prefer not to say,No,7,123213,No
338,,3486.31999999634,html-button-response,338,933227,0.0-18.0-10.0-1.0,u9v7sk4hb1,u9v7sk4hb1,conventional,,,1.0,,question,door,22.0,conventional,,,Non-Request,Yes,Prefer not to say,No,7,123213,No
339,,,audio-button-response,339,935968,0.0-18.0-11.0-0.0,u9v7sk4hb1,u9v7sk4hb1,conventional,,../data/raw/scaled_stimuli/22_question_Spanish.wav,,,question,Spanish,22.0,conventional,,,,No,Prefer not to say,No,7,123213,No
340,,586.2849999975879,html-button-response,340,936806,0.0-18.0-11.0-1.0,u9v7sk4hb1,u9v7sk4hb1,conventional,,,1.0,,question,Spanish,22.0,conventional,,,Non-Request,Yes,Prefer not to say,No,7,123213,No
341,,,audio-button-response,341,939201,0.0-19.0-0.0-0.0,u9v7sk4hb1,u9v7sk4hb1,conventional,,../data/raw/scaled_stimuli/1_question_door.wav,,,question,door,1.0,conventional,,,,No,Prefer not to say,No,7,123213,No
342,,2161.5250000031665,html-button-response,342,941618,0.0-19.0-0.0-1.0,u9v7sk4hb1,u9v7sk4hb1,conventional,,,1.0,,question,door,1.0,conventional,,,Non-Request,No,Prefer not to say,No,7,123213,No
343,,,audio-button-response,343,944596,0.0-19.0-1.0-0.0,u9v7sk4hb1,u9v7sk4hb1,conventional,,../data/raw/scaled_stimuli/1_question_box.wav,,,question,box,1.0,conventional,,,,No,Prefer not to say,No,7,123213,No
344,,1419.4450000068173,html-button-response,344,946271,0.0-19.0-1.0-1.0,u9v7sk4hb1,u9v7sk4hb1,conventional,,,1.0,,question,box,1.0,conventional,,,Non-Request,No,Prefer not to say,No,7,123213,No
345,,,audio-button-response,345,948466,0.0-19.0-2.0-0.0,u9v7sk4hb1,u9v7sk4hb1,conventional,,../data/raw/scaled_stimuli/1_request_Spanish.wav,,,request,Spanish,1.0,conventional,,,,No,Prefer not to say,No,7,123213,No
346,,2323.420000000624,html-button-response,346,951046,0.0-19.0-2.0-1.0,u9v7sk4hb1,u9v7sk4hb1,conventional,,,1.0,,request,Spanish,1.0,conventional,,,Non-Request,No,Prefer not to say,No,7,123213,No
347,,,audio-button-response,347,952971,0.0-19.0-3.0-0.0,u9v7sk4hb1,u9v7sk4hb1,conventional,,../data/raw/scaled_stimuli/1_question_piano.wav,,,question,piano,1.0,conventional,,,,No,Prefer not to say,No,7,123213,No
348,,2603.080000000773,html-button-response,348,955842,0.0-19.0-3.0-1.0,u9v7sk4hb1,u9v7sk4hb1,conventional,,,1.0,,question,piano,1.0,conventional,,,Non-Request,No,Prefer not to say,No,7,123213,No
349,,,audio-button-response,349,957731,0.0-19.0-4.0-0.0,u9v7sk4hb1,u9v7sk4hb1,conventional,,../data/raw/scaled_stimuli/1_question_temp.wav,,,question,temp,1.0,conventional,,,,No,Prefer not to say,No,7,123213,No
350,,1980.2250000066126,html-button-response,350,959967,0.0-19.0-4.0-1.0,u9v7sk4hb1,u9v7sk4hb1,conventional,,,1.0,,question,temp,1.0,conventional,,,Non-Request,No,Prefer not to say,No,7,123213,No
351,,,audio-button-response,351,961818,0.0-19.0-5.0-0.0,u9v7sk4hb1,u9v7sk4hb1,conventional,,../data/raw/scaled_stimuli/1_request_window.wav,,,request,window,1.0,conventional,,,,No,Prefer not to say,No,7,123213,No
352,,590.9300000057556,html-button-response,352,962665,0.0-19.0-5.0-1.0,u9v7sk4hb1,u9v7sk4hb1,conventional,,,1.0,,request,window,1.0,conventional,,,Non-Request,No,Prefer not to say,No,7,123213,No
353,,,audio-button-response,353,964633,0.0-19.0-6.0-0.0,u9v7sk4hb1,u9v7sk4hb1,conventional,,../data/raw/scaled_stimuli/1_request_box.wav,,,request,box,1.0,conventional,,,,No,Prefer not to say,No,7,123213,No
354,,2167.2799999942067,html-button-response,354,967057,0.0-19.0-6.0-1.0,u9v7sk4hb1,u9v7sk4hb1,conventional,,,1.0,,request,box,1.0,conventional,,,Non-Request,Yes,Prefer not to say,No,7,123213,No
355,,,audio-button-response,355,969992,0.0-19.0-7.0-0.0,u9v7sk4hb1,u9v7sk4hb1,conventional,,../data/raw/scaled_stimuli/1_question_Spanish.wav,,,question,Spanish,1.0,conventional,,,,No,Prefer not to say,No,7,123213,No
356,,1273.8100000133272,html-button-response,356,971521,0.0-19.0-7.0-1.0,u9v7sk4hb1,u9v7sk4hb1,conventional,,,1.0,,question,Spanish,1.0,conventional,,,Non-Request,Yes,Prefer not to say,No,7,123213,No
357,,,audio-button-response,357,973800,0.0-19.0-8.0-0.0,u9v7sk4hb1,u9v7sk4hb1,conventional,,../data/raw/scaled_stimuli/1_request_piano.wav,,,request,piano,1.0,conventional,,,,No,Prefer not to say,No,7,123213,No
358,,1021.8349999922792,html-button-response,358,975078,0.0-19.0-8.0-1.0,u9v7sk4hb1,u9v7sk4hb1,conventional,,,1.0,,request,piano,1.0,conventional,,,Non-Request,Yes,Prefer not to say,No,7,123213,No
359,,,audio-button-response,359,977318,0.0-19.0-9.0-0.0,u9v7sk4hb1,u9v7sk4hb1,conventional,,../data/raw/scaled_stimuli/1_request_door.wav,,,request,door,1.0,conventional,,,,No,Prefer not to say,No,7,123213,No
360,,1650.3749999974386,html-button-response,360,979224,0.0-19.0-9.0-1.0,u9v7sk4hb1,u9v7sk4hb1,conventional,,,1.0,,request,door,1.0,conventional,,,Non-Request,Yes,Prefer not to say,No,7,123213,No
361,,,audio-button-response,361,981230,0.0-19.0-10.0-0.0,u9v7sk4hb1,u9v7sk4hb1,conventional,,../data/raw/scaled_stimuli/1_request_temp.wav,,,request,temp,1.0,conventional,,,,No,Prefer not to say,No,7,123213,No
362,,961.1199999926613,html-button-response,362,982447,0.0-19.0-10.0-1.0,u9v7sk4hb1,u9v7sk4hb1,conventional,,,1.0,,request,temp,1.0,conventional,,,Non-Request,Yes,Prefer not to say,No,7,123213,No
363,,,audio-button-response,363,984528,0.0-19.0-11.0-0.0,u9v7sk4hb1,u9v7sk4hb1,conventional,,../data/raw/scaled_stimuli/1_question_window.wav,,,question,window,1.0,conventional,,,,No,Prefer not to say,No,7,123213,No
364,,3911.4600000029895,html-button-response,364,988695,0.0-19.0-11.0-1.0,u9v7sk4hb1,u9v7sk4hb1,conventional,,,1.0,,question,window,1.0,conventional,,,Non-Request,Yes,Prefer not to say,No,7,123213,No
365,,,audio-button-response,365,991552,0.0-20.0-0.0-0.0,u9v7sk4hb1,u9v7sk4hb1,conventional,,../data/raw/scaled_stimuli/11_question_temp.wav,,,question,temp,11.0,conventional,,,,No,Prefer not to say,No,7,123213,No
366,,400.6599999847822,html-button-response,366,992205,0.0-20.0-0.0-1.0,u9v7sk4hb1,u9v7sk4hb1,conventional,,,1.0,,question,temp,11.0,conventional,,,Non-Request,No,Prefer not to say,No,7,123213,No
367,,,audio-button-response,367,994258,0.0-20.0-1.0-0.0,u9v7sk4hb1,u9v7sk4hb1,conventional,,../data/raw/scaled_stimuli/11_request_Spanish.wav,,,request,Spanish,11.0,conventional,,,,No,Prefer not to say,No,7,123213,No
368,,699.7550000087358,html-button-response,368,995213,0.0-20.0-1.0-1.0,u9v7sk4hb1,u9v7sk4hb1,conventional,,,1.0,,request,Spanish,11.0,conventional,,,Non-Request,No,Prefer not to say,No,7,123213,No
369,,,audio-button-response,369,997671,0.0-20.0-2.0-0.0,u9v7sk4hb1,u9v7sk4hb1,conventional,,../data/raw/scaled_stimuli/11_question_Spanish.wav,,,question,Spanish,11.0,conventional,,,,No,Prefer not to say,No,7,123213,No
370,,2432.4699999997392,html-button-response,370,1000359,0.0-20.0-2.0-1.0,u9v7sk4hb1,u9v7sk4hb1,conventional,,,1.0,,question,Spanish,11.0,conventional,,,Non-Request,Yes,Prefer not to say,No,7,123213,No
371,,,audio-button-response,371,1003255,0.0-20.0-3.0-0.0,u9v7sk4hb1,u9v7sk4hb1,conventional,,../data/raw/scaled_stimuli/11_question_piano.wav,,,question,piano,11.0,conventional,,,,No,Prefer not to say,No,7,123213,No
372,,1940.5149999947753,html-button-response,372,1005451,0.0-20.0-3.0-1.0,u9v7sk4hb1,u9v7sk4hb1,conventional,,,1.0,,question,piano,11.0,conventional,,,Non-Request,No,Prefer not to say,No,7,123213,No
373,,,audio-button-response,373,1007609,0.0-20.0-4.0-0.0,u9v7sk4hb1,u9v7sk4hb1,conventional,,../data/raw/scaled_stimuli/11_request_temp.wav,,,request,temp,11.0,conventional,,,,No,Prefer not to say,No,7,123213,No
374,,2924.7099999920465,html-button-response,374,1010790,0.0-20.0-4.0-1.0,u9v7sk4hb1,u9v7sk4hb1,conventional,,,1.0,,request,temp,11.0,conventional,,,Non-Request,Yes,Prefer not to say,No,7,123213,No
375,,,audio-button-response,375,1012973,0.0-20.0-5.0-0.0,u9v7sk4hb1,u9v7sk4hb1,conventional,,../data/raw/scaled_stimuli/11_request_window.wav,,,request,window,11.0,conventional,,,,No,Prefer not to say,No,7,123213,No
376,,403.4899999969639,html-button-response,376,1013632,0.0-20.0-5.0-1.0,u9v7sk4hb1,u9v7sk4hb1,conventional,,,1.0,,request,window,11.0,conventional,,,Non-Request,No,Prefer not to say,No,7,123213,No
377,,,audio-button-response,377,1015429,0.0-20.0-6.0-0.0,u9v7sk4hb1,u9v7sk4hb1,conventional,,../data/raw/scaled_stimuli/11_question_box.wav,,,question,box,11.0,conventional,,,,No,Prefer not to say,No,7,123213,No
378,,630.1450000028127,html-button-response,378,1016315,0.0-20.0-6.0-1.0,u9v7sk4hb1,u9v7sk4hb1,conventional,,,1.0,,question,box,11.0,conventional,,,Non-Request,No,Prefer not to say,No,7,123213,No
379,,,audio-button-response,379,1017971,0.0-20.0-7.0-0.0,u9v7sk4hb1,u9v7sk4hb1,conventional,,../data/raw/scaled_stimuli/11_request_door.wav,,,request,door,11.0,conventional,,,,No,Prefer not to say,No,7,123213,No
380,,2147.5750000099647,html-button-response,380,1020373,0.0-20.0-7.0-1.0,u9v7sk4hb1,u9v7sk4hb1,conventional,,,1.0,,request,door,11.0,conventional,,,Non-Request,No,Prefer not to say,No,7,123213,No
381,,,audio-button-response,381,1022319,0.0-20.0-8.0-0.0,u9v7sk4hb1,u9v7sk4hb1,conventional,,../data/raw/scaled_stimuli/11_question_window.wav,,,question,window,11.0,conventional,,,,No,Prefer not to say,No,7,123213,No
382,,697.3949999955948,html-button-response,382,1023272,0.0-20.0-8.0-1.0,u9v7sk4hb1,u9v7sk4hb1,conventional,,,1.0,,question,window,11.0,conventional,,,Non-Request,Yes,Prefer not to say,No,7,123213,No
383,,,audio-button-response,383,1025326,0.0-20.0-9.0-0.0,u9v7sk4hb1,u9v7sk4hb1,conventional,,../data/raw/scaled_stimuli/11_question_door.wav,,,question,door,11.0,conventional,,,,No,Prefer not to say,No,7,123213,No
384,,387.94999997480767,html-button-response,384,1025970,0.0-20.0-9.0-1.0,u9v7sk4hb1,u9v7sk4hb1,conventional,,,1.0,,question,door,11.0,conventional,,,Non-Request,Yes,Prefer not to say,No,7,123213,No
385,,,audio-button-response,385,1027939,0.0-20.0-10.0-0.0,u9v7sk4hb1,u9v7sk4hb1,conventional,,../data/raw/scaled_stimuli/11_request_piano.wav,,,request,piano,11.0,conventional,,,,No,Prefer not to say,No,7,123213,No
386,,491.93499999819323,html-button-response,386,1028686,0.0-20.0-10.0-1.0,u9v7sk4hb1,u9v7sk4hb1,conventional,,,1.0,,request,piano,11.0,conventional,,,Non-Request,Yes,Prefer not to say,No,7,123213,No
387,,,audio-button-response,387,1030505,0.0-20.0-11.0-0.0,u9v7sk4hb1,u9v7sk4hb1,conventional,,../data/raw/scaled_stimuli/11_request_box.wav,,,request,box,11.0,conventional,,,,No,Prefer not to say,No,7,123213,No
388,,917.5800000084564,html-button-response,388,1031678,0.0-20.0-11.0-1.0,u9v7sk4hb1,u9v7sk4hb1,conventional,,,1.0,,request,box,11.0,conventional,,,Non-Request,Yes,Prefer not to say,No,7,123213,No
389,,,audio-button-response,389,1033512,0.0-21.0-0.0-0.0,u9v7sk4hb1,u9v7sk4hb1,conventional,,../data/raw/scaled_stimuli/6_question_door.wav,,,question,door,6.0,conventional,,,,No,Prefer not to say,No,7,123213,No
390,,2640.2349999989387,html-button-response,390,1036404,0.0-21.0-0.0-1.0,u9v7sk4hb1,u9v7sk4hb1,conventional,,,1.0,,question,door,6.0,conventional,,,Non-Request,No,Prefer not to say,No,7,123213,No
391,,,audio-button-response,391,1038109,0.0-21.0-1.0-0.0,u9v7sk4hb1,u9v7sk4hb1,conventional,,../data/raw/scaled_stimuli/6_question_window.wav,,,question,window,6.0,conventional,,,,No,Prefer not to say,No,7,123213,No
392,,1611.2250000005588,html-button-response,392,1039976,0.0-21.0-1.0-1.0,u9v7sk4hb1,u9v7sk4hb1,conventional,,,1.0,,question,window,6.0,conventional,,,Non-Request,No,Prefer not to say,No,7,123213,No
393,,,audio-button-response,393,1041726,0.0-21.0-2.0-0.0,u9v7sk4hb1,u9v7sk4hb1,conventional,,../data/raw/scaled_stimuli/6_request_window.wav,,,request,window,6.0,conventional,,,,No,Prefer not to say,No,7,123213,No
394,,4992.564999993192,html-button-response,394,1046971,0.0-21.0-2.0-1.0,u9v7sk4hb1,u9v7sk4hb1,conventional,,,1.0,,request,window,6.0,conventional,,,Non-Request,Yes,Prefer not to say,No,7,123213,No
395,,,audio-button-response,395,1048898,0.0-21.0-3.0-0.0,u9v7sk4hb1,u9v7sk4hb1,conventional,,../data/raw/scaled_stimuli/6_request_Spanish.wav,,,request,Spanish,6.0,conventional,,,,No,Prefer not to say,No,7,123213,No
396,,4524.340000003576,html-button-response,396,1053676,0.0-21.0-3.0-1.0,u9v7sk4hb1,u9v7sk4hb1,conventional,,,1.0,,request,Spanish,6.0,conventional,,,Non-Request,No,Prefer not to say,No,7,123213,No
397,,,audio-button-response,397,1055473,0.0-21.0-4.0-0.0,u9v7sk4hb1,u9v7sk4hb1,conventional,,../data/raw/scaled_stimuli/6_request_box.wav,,,request,box,6.0,conventional,,,,No,Prefer not to say,No,7,123213,No
398,,3548.284999997122,html-button-response,398,1059277,0.0-21.0-4.0-1.0,u9v7sk4hb1,u9v7sk4hb1,conventional,,,1.0,,request,box,6.0,conventional,,,Non-Request,No,Prefer not to say,No,7,123213,No
399,,,audio-button-response,399,1061237,0.0-21.0-5.0-0.0,u9v7sk4hb1,u9v7sk4hb1,conventional,,../data/raw/scaled_stimuli/6_question_box.wav,,,question,box,6.0,conventional,,,,No,Prefer not to say,No,7,123213,No
400,,430.3599999984726,html-button-response,400,1061921,0.0-21.0-5.0-1.0,u9v7sk4hb1,u9v7sk4hb1,conventional,,,1.0,,question,box,6.0,conventional,,,Non-Request,Yes,Prefer not to say,No,7,123213,No
401,,,audio-button-response,401,1063577,0.0-21.0-6.0-0.0,u9v7sk4hb1,u9v7sk4hb1,conventional,,../data/raw/scaled_stimuli/6_question_piano.wav,,,question,piano,6.0,conventional,,,,No,Prefer not to say,No,7,123213,No
402,,1247.9549999989106,html-button-response,402,1065080,0.0-21.0-6.0-1.0,u9v7sk4hb1,u9v7sk4hb1,conventional,,,1.0,,question,piano,6.0,conventional,,,Non-Request,No,Prefer not to say,No,7,123213,No
403,,,audio-button-response,403,1066613,0.0-21.0-7.0-0.0,u9v7sk4hb1,u9v7sk4hb1,conventional,,../data/raw/scaled_stimuli/6_request_door.wav,,,request,door,6.0,conventional,,,,No,Prefer not to say,No,7,123213,No
404,,3995.305000018561,html-button-response,404,1070864,0.0-21.0-7.0-1.0,u9v7sk4hb1,u9v7sk4hb1,conventional,,,1.0,,request,door,6.0,conventional,,,Non-Request,Yes,Prefer not to say,No,7,123213,No
405,,,audio-button-response,405,1072662,0.0-21.0-8.0-0.0,u9v7sk4hb1,u9v7sk4hb1,conventional,,../data/raw/scaled_stimuli/6_request_temp.wav,,,request,temp,6.0,conventional,,,,No,Prefer not to say,No,7,123213,No
406,,1067.3799999931364,html-button-response,406,1073985,0.0-21.0-8.0-1.0,u9v7sk4hb1,u9v7sk4hb1,conventional,,,1.0,,request,temp,6.0,conventional,,,Non-Request,No,Prefer not to say,No,7,123213,No
407,,,audio-button-response,407,1076052,0.0-21.0-9.0-0.0,u9v7sk4hb1,u9v7sk4hb1,conventional,,../data/raw/scaled_stimuli/6_question_Spanish.wav,,,question,Spanish,6.0,conventional,,,,No,Prefer not to say,No,7,123213,No
408,,1473.8549999892712,html-button-response,408,1077782,0.0-21.0-9.0-1.0,u9v7sk4hb1,u9v7sk4hb1,conventional,,,1.0,,question,Spanish,6.0,conventional,,,Non-Request,Yes,Prefer not to say,No,7,123213,No
409,,,audio-button-response,409,1079489,0.0-21.0-10.0-0.0,u9v7sk4hb1,u9v7sk4hb1,conventional,,../data/raw/scaled_stimuli/6_request_piano.wav,,,request,piano,6.0,conventional,,,,No,Prefer not to say,No,7,123213,No
410,,1119.9849999975413,html-button-response,410,1080862,0.0-21.0-10.0-1.0,u9v7sk4hb1,u9v7sk4hb1,conventional,,,1.0,,request,piano,6.0,conventional,,,Non-Request,Yes,Prefer not to say,No,7,123213,No
411,,,audio-button-response,411,1082693,0.0-21.0-11.0-0.0,u9v7sk4hb1,u9v7sk4hb1,conventional,,../data/raw/scaled_stimuli/6_question_temp.wav,,,question,temp,6.0,conventional,,,,No,Prefer not to say,No,7,123213,No
412,,795.2850000001489,html-button-response,412,1083744,0.0-21.0-11.0-1.0,u9v7sk4hb1,u9v7sk4hb1,conventional,,,1.0,,question,temp,6.0,conventional,,,Non-Request,Yes,Prefer not to say,No,7,123213,No
413,,,audio-button-response,413,1085723,0.0-22.0-0.0-0.0,u9v7sk4hb1,u9v7sk4hb1,conventional,,../data/raw/scaled_stimuli/9_question_window.wav,,,question,window,9.0,conventional,,,,No,Prefer not to say,No,7,123213,No
414,,591.4099999936298,html-button-response,414,1086570,0.0-22.0-0.0-1.0,u9v7sk4hb1,u9v7sk4hb1,conventional,,,1.0,,question,window,9.0,conventional,,,Non-Request,No,Prefer not to say,No,7,123213,No
415,,,audio-button-response,415,1088324,0.0-22.0-1.0-0.0,u9v7sk4hb1,u9v7sk4hb1,conventional,,../data/raw/scaled_stimuli/9_request_piano.wav,,,request,piano,9.0,conventional,,,,No,Prefer not to say,No,7,123213,No
416,,1176.1699999915434,html-button-response,416,1089754,0.0-22.0-1.0-1.0,u9v7sk4hb1,u9v7sk4hb1,conventional,,,1.0,,request,piano,9.0,conventional,,,Non-Request,No,Prefer not to say,No,7,123213,No
417,,,audio-button-response,417,1091598,0.0-22.0-2.0-0.0,u9v7sk4hb1,u9v7sk4hb1,conventional,,../data/raw/scaled_stimuli/9_question_door.wav,,,question,door,9.0,conventional,,,,No,Prefer not to say,No,7,123213,No
418,,878.1000000017231,html-button-response,418,1092731,0.0-22.0-2.0-1.0,u9v7sk4hb1,u9v7sk4hb1,conventional,,,1.0,,question,door,9.0,conventional,,,Non-Request,No,Prefer not to say,No,7,123213,No
419,,,audio-button-response,419,1094541,0.0-22.0-3.0-0.0,u9v7sk4hb1,u9v7sk4hb1,conventional,,../data/raw/scaled_stimuli/9_request_door.wav,,,request,door,9.0,conventional,,,,No,Prefer not to say,No,7,123213,No
420,,776.7500000190921,html-button-response,420,1095574,0.0-22.0-3.0-1.0,u9v7sk4hb1,u9v7sk4hb1,conventional,,,1.0,,request,door,9.0,conventional,,,Non-Request,Yes,Prefer not to say,No,7,123213,No
421,,,audio-button-response,421,1097670,0.0-22.0-4.0-0.0,u9v7sk4hb1,u9v7sk4hb1,conventional,,../data/raw/scaled_stimuli/9_question_temp.wav,,,question,temp,9.0,conventional,,,,No,Prefer not to say,No,7,123213,No
422,,1084.5399999816436,html-button-response,422,1099011,0.0-22.0-4.0-1.0,u9v7sk4hb1,u9v7sk4hb1,conventional,,,1.0,,question,temp,9.0,conventional,,,Non-Request,No,Prefer not to say,No,7,123213,No
423,,,audio-button-response,423,1101101,0.0-22.0-5.0-0.0,u9v7sk4hb1,u9v7sk4hb1,conventional,,../data/raw/scaled_stimuli/9_request_temp.wav,,,request,temp,9.0,conventional,,,,No,Prefer not to say,No,7,123213,No
424,,1363.294999988284,html-button-response,424,1102721,0.0-22.0-5.0-1.0,u9v7sk4hb1,u9v7sk4hb1,conventional,,,1.0,,request,temp,9.0,conventional,,,Non-Request,Yes,Prefer not to say,No,7,123213,No
425,,,audio-button-response,425,1104613,0.0-22.0-6.0-0.0,u9v7sk4hb1,u9v7sk4hb1,conventional,,../data/raw/scaled_stimuli/9_request_box.wav,,,request,box,9.0,conventional,,,,No,Prefer not to say,No,7,123213,No
426,,609.0250000124798,html-button-response,426,1105478,0.0-22.0-6.0-1.0,u9v7sk4hb1,u9v7sk4hb1,conventional,,,1.0,,request,box,9.0,conventional,,,Non-Request,No,Prefer not to say,No,7,123213,No
427,,,audio-button-response,427,1107394,0.0-22.0-7.0-0.0,u9v7sk4hb1,u9v7sk4hb1,conventional,,../data/raw/scaled_stimuli/9_question_box.wav,,,question,box,9.0,conventional,,,,No,Prefer not to say,No,7,123213,No
428,,790.5350000073668,html-button-response,428,1108436,0.0-22.0-7.0-1.0,u9v7sk4hb1,u9v7sk4hb1,conventional,,,1.0,,question,box,9.0,conventional,,,Non-Request,Yes,Prefer not to say,No,7,123213,No
429,,,audio-button-response,429,1110442,0.0-22.0-8.0-0.0,u9v7sk4hb1,u9v7sk4hb1,conventional,,../data/raw/scaled_stimuli/9_request_Spanish.wav,,,request,Spanish,9.0,conventional,,,,No,Prefer not to say,No,7,123213,No
430,,670.429999998305,html-button-response,430,1111368,0.0-22.0-8.0-1.0,u9v7sk4hb1,u9v7sk4hb1,conventional,,,1.0,,request,Spanish,9.0,conventional,,,Non-Request,No,Prefer not to say,No,7,123213,No
431,,,audio-button-response,431,1113234,0.0-22.0-9.0-0.0,u9v7sk4hb1,u9v7sk4hb1,conventional,,../data/raw/scaled_stimuli/9_question_Spanish.wav,,,question,Spanish,9.0,conventional,,,,No,Prefer not to say,No,7,123213,No
432,,807.0949999964796,html-button-response,432,1114297,0.0-22.0-9.0-1.0,u9v7sk4hb1,u9v7sk4hb1,conventional,,,1.0,,question,Spanish,9.0,conventional,,,Non-Request,Yes,Prefer not to say,No,7,123213,No
433,,,audio-button-response,433,1116235,0.0-22.0-10.0-0.0,u9v7sk4hb1,u9v7sk4hb1,conventional,,../data/raw/scaled_stimuli/9_request_window.wav,,,request,window,9.0,conventional,,,,No,Prefer not to say,No,7,123213,No
434,,905.5499999958556,html-button-response,434,1117397,0.0-22.0-10.0-1.0,u9v7sk4hb1,u9v7sk4hb1,conventional,,,1.0,,request,window,9.0,conventional,,,Non-Request,Yes,Prefer not to say,No,7,123213,No
435,,,audio-button-response,435,1119033,0.0-22.0-11.0-0.0,u9v7sk4hb1,u9v7sk4hb1,conventional,,../data/raw/scaled_stimuli/9_question_piano.wav,,,question,piano,9.0,conventional,,,,No,Prefer not to say,No,7,123213,No
436,,813.7250000145286,html-button-response,436,1120103,0.0-22.0-11.0-1.0,u9v7sk4hb1,u9v7sk4hb1,conventional,,,1.0,,question,piano,9.0,conventional,,,Non-Request,Yes,Prefer not to say,No,7,123213,No
437,,5124.799999990501,survey-text,437,1125679,0.0-23.0,u9v7sk4hb1,u9v7sk4hb1,conventional,,,,debrief,,,,,"{""Q0"":""sdsdsfds""}",,,No,Prefer not to say,No,7,123213,No
438,,11738.530000002356,survey-multi-choice,438,1137674,0.0-24.0,u9v7sk4hb1,u9v7sk4hb1,conventional,,,,demographic1,,,,,"{""Q0"":""Prefer not to say"",""Q1"":""No"",""Q2"":""7"",""Q3"":""No""}","[0,1,2,3]",,No,Prefer not to say,No,7,123213,No
439,,2111.575000017183,survey-text,439,1140049,0.0-25.0,u9v7sk4hb1,u9v7sk4hb1,conventional,,,,age,,,,,"{""Q0"":""123213""}",,,No,Prefer not to say,No,7,123213,No
